t,ax,ay,az,gx,gy,gz,mag_valid,mx,my,mz,
14541061,-800,155,16208,-70,-22,105,1,16,1558,272,
5017,-805,174,16207,-78,-23,106,1,23,1563,271,
5027,-807,185,16206,-77,-21,104,1,32,1552,274,
5037,-811,191,16212,-79,-19,104,1,22,1546,278,
5047,-819,181,16218,-75,-25,105,1,26,1552,270,
5057,-823,180,16219,-75,-26,103,1,21,1557,275,
5067,-820,184,16214,-72,-25,106,1,23,1553,269,
5077,-820,185,16216,-74,-24,104,1,30,1558,264,
5087,-821,178,16216,-77,-23,104,1,22,1552,272,
5097,-817,180,16218,-75,-22,104,1,26,1556,264,
5107,-817,180,16213,-76,-24,106,1,26,1556,280,
5117,-817,172,16211,-74,-26,108,1,15,1557,273,
5127,-812,175,16210,-72,-26,111,1,20,1556,272,
5137,-810,174,16218,-76,-27,113,1,27,1557,277,
5147,-812,177,16211,-76,-22,111,1,24,1556,274,
5157,-817,182,16226,-74,-22,108,1,30,1556,278,
5167,-821,175,16219,-72,-23,110,1,28,1554,274,
5177,-818,183,16220,-75,-23,109,1,23,1553,281,
5187,-809,176,16221,-73,-19,110,1,32,1560,276,
5197,-813,181,16225,-74,-19,110,1,23,1553,271,
5207,-811,183,16215,-76,-19,110,1,22,1560,270,
5217,-804,182,16218,-77,-20,110,1,28,1556,276,
5227,-811,178,16226,-78,-21,107,1,25,1557,273,
5237,-814,178,16222,-79,-20,107,1,32,1554,278,
5247,-812,177,16223,-76,-18,103,1,27,1563,271,
5257,-812,178,16221,-78,-21,105,1,29,1555,273,
5267,-813,168,16224,-78,-20,107,1,29,1561,271,
5277,-813,175,16223,-82,-22,108,1,26,1552,272,
5288,-814,179,16222,-81,-19,110,1,31,1555,267,
5298,-816,179,16225,-78,-20,110,1,21,1565,275,
5308,-812,174,16222,-77,-21,107,1,19,1553,275,
5318,-812,172,16203,-81,-24,109,1,23,1555,275,
5328,-813,175,16199,-77,-24,106,1,30,1558,280,
5339,-814,173,16203,-79,-24,104,1,27,1553,279,
5349,-812,170,16202,-78,-21,106,1,22,1548,270,
5359,-820,177,16203,-82,-21,106,1,25,1559,277,
5369,-819,179,16197,-84,-22,107,1,23,1549,283,
5379,-817,181,16197,-85,-22,105,1,23,1555,275,
5389,-816,187,16195,-84,-22,106,1,26,1562,282,
5400,-812,182,16193,-84,-21,108,1,20,1552,276,
5410,-813,182,16197,-81,-22,107,1,21,1555,279,
5420,-814,175,16211,-80,-22,109,1,23,1557,271,
5430,-811,175,16197,-81,-25,107,1,29,1551,277,
5440,-810,168,16205,-83,-26,106,1,23,1557,273,
5451,-813,165,16208,-82,-26,104,1,19,1555,271,
5461,-812,167,16207,-86,-25,102,1,21,1555,277,
5471,-813,168,16205,-82,-22,104,1,22,1558,272,
5481,-810,170,16207,-83,-21,103,1,27,1561,275,
5491,-808,174,16210,-79,-20,103,1,27,1551,273,
5501,-809,180,16202,-74,-20,107,1,24,1556,282,
5511,-812,184,16200,-75,-18,106,1,25,1553,285,
5522,-813,184,16192,-76,-19,105,1,26,1558,278,
5532,-811,184,16190,-75,-17,106,1,25,1549,279,
5542,-810,178,16195,-74,-19,107,1,34,1554,268,
5552,-804,178,16200,-73,-16,105,1,27,1553,271,
5563,-808,178,16195,-76,-16,105,1,25,1555,281,
5573,-809,173,16202,-81,-15,108,1,24,1552,274,
5583,-809,177,16203,-80,-18,111,1,29,1561,279,
5593,-812,170,16210,-79,-19,111,1,29,1553,277,
5603,-814,175,16214,-79,-22,108,1,28,1560,282,
5624,-816,176,16227,-77,-23,106,1,18,1554,272,
5644,-824,181,16215,-78,-23,107,1,29,1555,279,
5665,-822,182,16215,-81,-21,100,1,25,1549,277,
5685,-821,176,16228,-78,-21,105,1,17,1557,275,
5705,-812,182,16208,-78,-22,101,1,28,1560,274,
5726,-811,177,16207,-78,-20,104,1,24,1550,278,
5746,-803,174,16224,-78,-23,109,1,22,1558,282,
5766,-807,175,16218,-80,-18,106,1,24,1554,272,
5787,-813,176,16219,-80,-21,105,1,22,1550,280,
5807,-815,168,16224,-81,-15,109,1,25,1545,277,
5827,-807,178,16224,-79,-16,108,1,25,1563,271,
5848,-818,174,16219,-78,-15,104,1,28,1558,278,
5868,-811,177,16218,-80,-21,104,1,24,1554,278,
5888,-811,183,16212,-82,-19,107,1,16,1554,268,
5909,-813,186,16209,-81,-22,109,1,22,1558,282,
5929,-816,188,16217,-80,-18,108,1,28,1554,280,
5949,-819,179,16218,-82,-24,108,1,22,1560,280,
5970,-816,173,16215,-78,-23,103,1,26,1556,278,
5990,-819,177,16206,-76,-21,107,1,19,1559,269,
6011,-818,175,16225,-75,-19,103,1,19,1557,275,
6031,-823,182,16228,-76,-20,107,1,31,1553,273,
6051,-821,179,16223,-77,-17,107,1,21,1555,281,
6072,-820,176,16240,-85,-19,109,1,25,1555,275,
6092,-828,172,16228,-85,-19,106,1,30,1552,278,
6112,-831,184,16218,-81,-18,108,1,22,1554,272,
6133,-828,178,16204,-80,-19,108,1,28,1548,274,
6153,-820,178,16211,-82,-17,107,1,23,1553,277,
6173,-823,179,16213,-79,-17,105,1,16,1556,276,
6194,-810,180,16223,-81,-19,107,1,26,1548,278,
6214,-820,183,16225,-82,-21,105,1,25,1553,277,
6234,-824,181,16203,-79,-22,107,1,27,1557,279,
6255,-822,179,16199,-78,-26,107,1,19,1557,277,
6275,-822,170,16207,-74,-23,110,1,24,1558,276,
6295,-823,186,16206,-78,-19,108,1,29,1557,269,
6316,-822,179,16193,-78,-24,109,1,27,1555,271,
6336,-816,183,16200,-84,-22,111,1,26,1556,278,
6357,-821,177,16212,-80,-21,108,1,25,1553,279,
6377,-812,167,16216,-77,-23,111,1,24,1558,278,
6398,-809,166,16211,-79,-20,106,1,28,1558,276,
6418,-818,173,16211,-82,-20,105,1,23,1565,273,
6438,-823,172,16219,-85,-20,106,1,28,1560,280,
6459,-822,167,16218,-84,-17,106,1,22,1554,272,
6479,-823,176,16208,-79,-19,107,1,32,1554,268,
6499,-815,183,16207,-81,-21,105,1,20,1552,274,
6520,-812,185,16219,-78,-18,106,1,22,1548,270,
6540,-805,180,16225,-74,-21,107,1,31,1553,269,
6560,-823,169,16217,-75,-20,109,1,22,1560,280,
6581,-825,173,16218,-76,-19,108,1,26,1548,274,
6601,-825,176,16226,-76,-23,109,1,22,1556,276,
6621,-819,192,16204,-78,-25,111,1,18,1556,266,
6642,-822,184,16193,-81,-22,111,1,19,1547,277,
6662,-816,186,16212,-81,-22,110,1,23,1561,277,
6682,-822,179,16198,-74,-24,106,1,24,1548,272,
6703,-824,179,16197,-78,-24,107,1,27,1545,273,
6723,-828,173,16217,-78,-20,110,1,21,1563,273,
6744,-825,185,16219,-78,-19,110,1,25,1555,267,
6764,-819,187,16213,-80,-19,108,1,31,1555,275,
6784,-818,189,16214,-76,-22,111,1,22,1554,280,
6805,-817,178,16232,-75,-26,105,1,24,1552,278,
6825,-817,181,16228,-79,-22,106,1,29,1557,271,
6845,-812,183,16226,-77,-24,108,1,27,1557,269,
6866,-815,178,16223,-76,-24,107,1,28,1558,280,
6886,-809,176,16218,-78,-22,104,1,22,1552,274,
6906,-818,178,16208,-76,-23,106,1,18,1558,274,
6927,-821,184,16218,-79,-27,103,1,31,1557,273,
6947,-817,181,16220,-76,-26,102,1,18,1550,262,
6967,-824,180,16214,-80,-24,104,1,27,1555,271,
6988,-822,191,16210,-75,-21,105,1,19,1551,277,
7008,-816,190,16203,-78,-22,105,1,20,1546,282,
7028,-813,199,16193,-76,-26,108,1,33,1555,269,
7049,-817,186,16219,-81,-22,103,1,33,1555,275,
7069,-817,181,16205,-78,-17,107,1,32,1556,268,
7090,-813,182,16206,-75,-20,106,1,25,1555,281,
7110,-818,183,16207,-75,-19,107,1,20,1548,282,
7131,-817,186,16225,-75,-18,104,1,37,1557,273,
7151,-808,181,16224,-78,-19,105,1,26,1560,280,
7171,-813,179,16226,-74,-20,107,1,21,1555,277,
7192,-816,185,16216,-84,-19,104,1,27,1559,271,
7212,-802,178,16207,-86,-17,107,1,30,1558,278,
7232,-809,177,16205,-84,-24,106,1,24,1554,276,
7252,-815,177,16205,-82,-23,108,1,25,1553,275,
7273,-817,181,16204,-80,-22,106,1,34,1558,274,
7293,-811,167,16211,-77,-21,105,1,25,1553,275,
7313,-816,178,16209,-76,-18,102,1,21,1551,275,
7334,-823,186,16188,-79,-21,105,1,28,1554,280,
7354,-815,189,16201,-80,-23,102,1,28,1562,278,
7375,-813,179,16203,-79,-23,103,1,22,1552,278,
7395,-819,173,16216,-77,-22,105,1,30,1554,270,
7416,-811,176,16207,-79,-25,104,1,15,1551,271,
7436,-805,182,16215,-78,-23,108,1,34,1550,278,
7456,-819,183,16214,-79,-25,108,1,24,1560,280,
7477,-820,189,16208,-76,-22,107,1,21,1557,277,
7497,-818,172,16209,-76,-21,105,1,18,1548,270,
7517,-820,167,16212,-78,-22,108,1,27,1555,275,
7537,-823,173,16193,-78,-27,108,1,29,1559,273,
7558,-823,176,16200,-76,-25,107,1,27,1555,275,
7578,-822,166,16201,-79,-23,103,1,21,1561,273,
7598,-821,176,16194,-82,-20,106,1,22,1556,268,
7619,-826,178,16201,-82,-19,105,1,33,1555,273,
7639,-818,180,16201,-84,-22,103,1,31,1555,269,
7659,-811,176,16191,-86,-22,109,1,20,1548,276,
7680,-803,173,16206,-82,-21,107,1,22,1558,268,
7700,-805,178,16213,-77,-26,108,1,20,1550,266,
7721,-812,179,16211,-81,-28,107,1,26,1544,274,
7741,-827,172,16214,-85,-20,107,1,27,1553,279,
7762,-825,171,16200,-85,-19,105,1,17,1557,273,
7782,-820,177,16213,-81,-16,103,1,16,1548,276,
7802,-815,174,16218,-79,-16,105,1,30,1554,272,
7823,-814,171,16227,-82,-20,107,1,17,1559,273,
7843,-819,177,16231,-77,-21,108,1,27,1549,275,
7863,-825,185,16235,-80,-20,106,1,30,1562,270,
7884,-828,174,16216,-75,-23,107,1,22,1554,280,
7904,-826,175,16214,-79,-24,107,1,28,1544,278,
7924,-827,168,16200,-86,-23,105,1,28,1558,272,
7945,-825,170,16203,-83,-23,108,1,20,1554,276,
7965,-821,175,16211,-79,-25,109,1,23,1555,269,
7985,-812,176,16206,-81,-24,104,1,24,1556,272,
7995,-807,175,16210,-81,-26,105,1,25,1559,269,
8016,-811,170,16217,-80,-26,106,1,28,1556,278,
8036,-807,184,16206,-77,-25,103,1,22,1552,278,
8057,-812,172,16207,-78,-23,105,1,27,1557,283,
8077,-818,169,16212,-81,-21,107,1,19,1561,275,
8097,-813,169,16214,-78,-22,108,1,28,1554,272,
8118,-815,184,16204,-79,-20,108,1,28,1554,274,
8138,-809,186,16209,-71,-21,104,1,20,1556,278,
8158,-811,181,16209,-75,-21,105,1,31,1549,275,
8179,-809,180,16211,-77,-18,103,1,20,1552,278,
8199,-817,190,16201,-79,-16,102,1,29,1549,271,
8219,-817,180,16196,-79,-23,101,1,18,1550,274,
8240,-822,172,16208,-76,-18,104,1,27,1547,275,
8260,-815,161,16227,-80,-21,102,1,27,1551,275,
8280,-803,166,16214,-82,-24,101,1,33,1553,277,
8301,-818,174,16205,-82,-20,103,1,25,1553,269,
8321,-813,178,16205,-86,-23,105,1,22,1558,272,
8342,-813,173,16201,-82,-18,103,1,23,1559,279,
8362,-810,169,16212,-79,-19,102,1,25,1551,271,
8382,-810,171,16207,-78,-19,102,1,19,1555,267,
8403,-815,181,16207,-74,-16,106,1,28,1560,274,
8423,-811,184,16206,-73,-20,103,1,27,1559,267,
8443,-813,184,16206,-71,-24,105,1,20,1554,276,
8464,-805,175,16212,-79,-26,108,1,21,1553,273,
8484,-811,173,16206,-76,-23,109,1,28,1556,272,
8504,-810,172,16194,-78,-24,108,1,27,1555,271,
8525,-818,171,16201,-76,-19,107,1,27,1547,283,
8545,-819,171,16216,-77,-21,108,1,27,1559,271,
8565,-821,169,16199,-83,-20,108,1,17,1555,273,
8575,-825,173,16198,-82,-19,108,1,28,1560,276,
8596,-827,174,16210,-79,-19,107,1,21,1555,277,
8616,-821,181,16205,-77,-21,107,1,27,1559,269,
8637,-821,174,16197,-78,-20,110,1,22,1554,276,
8657,-816,175,16205,-79,-22,108,1,27,1553,281,
8678,-821,173,16195,-81,-22,108,1,21,1555,275,
8698,-816,178,16206,-80,-22,107,1,28,1556,274,
8718,-811,169,16204,-78,-22,109,1,19,1557,275,
8739,-808,168,16202,-79,-24,111,1,26,1560,270,
8759,-816,162,16197,-79,-20,107,1,24,1560,278,
8779,-826,176,16197,-76,-21,105,1,23,1553,273,
8800,-827,178,16211,-78,-17,106,1,29,1559,269,
8820,-822,180,16219,-78,-15,103,1,24,1550,274,
8840,-831,187,16210,-80,-15,103,1,24,1558,270,
8861,-832,197,16203,-80,-16,106,1,30,1560,270,
8881,-836,181,16222,-82,-19,104,1,23,1555,269,
8901,-835,186,16213,-87,-15,105,1,30,1556,272,
8922,-826,186,16214,-83,-17,106,1,24,1554,272,
8942,-820,189,16227,-80,-17,106,1,25,1555,277,
8963,-827,178,16232,-79,-18,104,1,30,1552,268,
8983,-822,170,16232,-76,-18,107,1,29,1551,277,
9003,-817,181,16226,-77,-13,108,1,34,1556,268,
9024,-822,178,16208,-79,-20,105,1,28,1554,274,
9044,-820,184,16210,-81,-21,106,1,17,1555,275,
9064,-821,185,16215,-83,-19,105,1,25,1547,273,
9085,-821,195,16209,-81,-18,109,1,20,1556,282,
9105,-823,187,16212,-79,-20,105,1,21,1553,279,
9125,-813,184,16214,-75,-21,105,1,21,1553,279,
9146,-817,183,16214,-74,-17,105,1,26,1552,282,
9166,-817,184,16207,-75,-15,108,1,32,1550,274,
9186,-818,188,16207,-82,-15,104,1,33,1559,271,
9207,-826,187,16210,-80,-19,104,1,31,1545,279,
9227,-826,190,16203,-80,-20,103,1,32,1544,274,
9247,-835,182,16208,-79,-20,106,1,24,1560,274,
9268,-830,169,16200,-80,-22,107,1,23,1557,273,
9288,-816,182,16204,-76,-24,108,1,24,1546,274,
9308,-814,180,16207,-78,-25,105,1,18,1558,280,
9329,-814,180,16218,-80,-23,106,1,29,1551,273,
9349,-820,165,16206,-81,-22,104,1,29,1551,267,
9370,-814,169,16201,-80,-20,109,1,26,1562,272,
9390,-812,173,16200,-78,-20,112,1,30,1554,266,
9410,-817,176,16213,-76,-22,105,1,30,1562,274,
9431,-820,169,16208,-75,-20,107,1,26,1548,278,
9451,-820,185,16209,-77,-21,106,1,25,1555,273,
9471,-827,181,16217,-79,-20,112,1,27,1553,271,
9492,-830,193,16206,-79,-20,109,1,21,1557,271,
9512,-812,190,16203,-80,-16,104,1,26,1554,274,
9532,-817,180,16210,-82,-16,100,1,28,1560,284,
9553,-814,172,16220,-80,-15,102,1,26,1558,276,
9573,-819,170,16206,-81,-20,105,1,19,1557,281,
9593,-821,176,16212,-79,-20,106,1,19,1557,277,
9614,-826,180,16213,-81,-20,103,1,27,1557,279,
9634,-810,175,16210,-83,-21,104,1,17,1553,279,
9655,-822,181,16223,-82,-25,108,1,31,1551,279,
9675,-825,177,16226,-81,-23,105,1,30,1556,278,
9695,-819,166,16220,-80,-25,106,1,23,1551,271,
9716,-816,164,16217,-86,-22,106,1,24,1558,278,
9736,-819,172,16209,-82,-19,108,1,33,1559,273,
9757,-811,170,16206,-82,-19,107,1,26,1546,276,
9777,-814,186,16217,-85,-20,109,1,33,1553,281,
9797,-822,173,16216,-82,-18,106,1,26,1550,270,
9818,-825,184,16219,-83,-19,104,1,26,1566,270,
9838,-818,175,16203,-83,-19,108,1,26,1556,276,
9858,-814,183,16201,-85,-19,108,1,28,1548,274,
9879,-815,177,16206,-84,-18,109,1,23,1553,269,
9899,-812,192,16215,-81,-18,110,1,32,1558,276,
9919,-816,180,16202,-81,-22,108,1,26,1550,276,
9940,-813,184,16189,-84,-19,102,1,23,1551,279,
9960,-817,182,16201,-81,-19,107,1,27,1555,281,
9980,-822,194,16204,-77,-21,106,1,25,1553,279,
10001,-821,194,16212,-76,-21,107,1,28,1560,274,
10021,-827,192,16225,-77,-16,104,1,33,1551,275,
10042,-820,187,16204,-76,-24,106,1,22,1558,278,
10062,-818,181,16195,-74,-22,106,1,37,1549,271,
10082,-813,183,16175,-75,-23,104,1,27,1557,277,
10103,-808,180,16196,-78,-22,109,1,25,1543,275,
10123,-812,184,16214,-83,-20,107,1,24,1548,278,
10143,-806,173,16208,-77,-20,107,1,21,1553,269,
10164,-816,173,16220,-76,-21,107,1,32,1550,276,
10184,-810,166,16210,-76,-22,104,1,21,1555,275,
10205,-817,180,16216,-76,-23,105,1,22,1558,270,
10225,-817,177,16212,-79,-19,106,1,29,1553,269,
10245,-816,175,16219,-83,-16,106,1,25,1557,271,
10266,-815,166,16235,-80,-22,106,1,27,1553,271,
10286,-820,183,16209,-77,-20,109,1,30,1550,276,
10306,-818,196,16204,-77,-22,109,1,25,1555,271,
10316,-818,191,16208,-77,-21,108,1,36,1554,278,
10337,-825,178,16202,-76,-22,105,1,28,1558,270,
10357,-819,181,16197,-80,-18,104,1,23,1557,269,
10378,-823,183,16190,-80,-22,107,1,29,1559,281,
10398,-818,188,16199,-79,-23,106,1,24,1552,276,
10418,-821,179,16206,-77,-24,105,1,24,1550,278,
10439,-821,192,16210,-84,-24,109,1,22,1556,268,
10459,-814,180,16205,-79,-26,103,1,27,1555,281,
10480,-815,180,16208,-77,-25,104,1,28,1556,276,
10500,-815,179,16202,-80,-24,110,1,31,1553,275,
10520,-816,181,16203,-80,-23,108,1,26,1560,272,
10541,-817,181,16215,-80,-22,108,1,23,1555,267,
10561,-818,182,16208,-73,-17,110,1,17,1553,273,
10581,-812,173,16218,-74,-18,105,1,27,1555,279,
10591,-810,164,16215,-73,-19,108,1,24,1558,272,
10612,-816,168,16205,-78,-19,109,1,28,1556,282,
10632,-827,182,16193,-79,-22,105,1,18,1550,276,
10653,-814,184,16187,-77,-23,102,1,29,1559,287,
10673,-803,176,16206,-73,-19,106,1,29,1561,277,
10693,-811,184,16192,-72,-16,104,1,25,1555,273,
10714,-814,189,16182,-75,-20,106,1,21,1559,279,
10734,-816,189,16195,-74,-20,105,1,28,1552,272,
10754,-816,184,16200,-76,-21,105,1,33,1549,275,
10775,-818,175,16210,-79,-21,105,1,26,1548,276,
10795,-811,175,16191,-81,-20,105,1,26,1558,272,
10816,-810,176,16198,-80,-18,104,1,24,1560,276,
10836,-806,178,16205,-81,-18,103,1,20,1562,278,
10856,-812,177,16218,-80,-20,100,1,20,1548,282,
10866,-818,172,16203,-84,-21,100,1,35,1551,271,
10887,-819,177,16217,-89,-18,103,1,22,1554,272,
10907,-824,177,16227,-84,-16,107,1,35,1557,269,
10928,-820,180,16218,-80,-21,107,1,26,1556,280,
10948,-807,170,16235,-83,-18,106,1,19,1555,279,
10969,-806,173,16226,-76,-19,109,1,28,1550,274,
10989,-815,177,16213,-79,-26,110,1,20,1556,276,
11009,-809,179,16224,-50,-28,105,1,29,1557,271,
11030,-810,177,16229,-97,-33,103,1,24,1558,272,
11050,-829,169,16230,-73,-35,101,1,28,1558,274,
11070,-806,159,16218,-94,-28,103,1,20,1562,270,
11091,-836,169,16218,-81,-26,107,1,30,1560,278,
11111,-805,165,16204,-76,-20,105,1,26,1554,278,
11131,-824,171,16205,-63,-23,102,1,28,1546,274,
11152,-801,171,16208,-32,-28,104,1,21,1563,283,
11172,-807,174,16198,-49,-25,105,1,24,1554,276,
11192,-789,186,16198,-64,-25,100,1,30,1552,278,
11213,-816,182,16214,-75,-30,104,1,30,1548,274,
11233,-815,175,16198,-71,-27,110,1,26,1556,282,
11254,-810,179,16214,-73,-39,104,1,31,1557,269,
11274,-810,172,16224,-63,-36,94,1,24,1548,278,
11294,-823,175,16219,-43,-33,94,1,24,1552,272,
11315,-815,169,16215,13,-46,96,1,21,1551,275,
11335,-773,146,16211,-14,-24,110,1,33,1561,279,
11355,-796,173,16215,-4,-22,108,1,27,1549,277,
11376,-764,170,16217,-25,-15,107,1,29,1553,285,
11396,-783,174,16210,-40,-21,109,1,30,1546,270,
11416,-802,163,16210,-30,-21,103,1,27,1563,275,
11437,-810,161,16208,5,-27,107,1,27,1553,273,
11457,-796,187,16208,23,-34,107,1,30,1556,276,
11478,-773,179,16221,29,-44,114,1,24,1550,274,
11498,-761,156,16225,0,-19,104,1,25,1553,277,
11519,-764,171,16223,-23,-15,105,1,26,1552,280,
11539,-809,172,16245,46,-20,100,1,29,1553,281,
11559,-784,170,16214,115,-16,98,1,31,1553,275,
11579,-714,138,16203,182,-12,95,1,24,1550,280,
11600,-698,190,16216,122,-7,139,1,24,1556,290,
11620,-697,168,16227,84,-30,160,1,17,1549,279,
11640,-686,151,16234,14,15,145,1,29,1551,279,
11661,-761,160,16214,27,46,111,1,27,1553,275,
11681,-737,77,16235,40,98,50,1,22,1552,274,
11702,-656,-34,16236,49,177,-138,1,22,1566,280,
11722,-615,-20,16297,23,302,-265,1,19,1551,277,
11742,-543,-37,16382,67,605,-376,1,18,1548,268,
11763,-439,-39,16544,131,1101,-422,1,24,1554,276,
11783,-417,42,16766,188,1583,-405,1,22,1554,272,
11803,-457,202,16911,419,2118,-455,1,22,1548,270,
11824,-455,303,17033,623,2512,-514,1,21,1555,271,
11844,-479,475,17104,648,2476,-513,1,23,1557,277,
11865,-474,664,17187,636,2081,-496,1,26,1552,272,
11885,-482,809,17227,595,1570,-464,1,26,1556,276,
11905,-495,905,17100,496,1066,-404,1,23,1555,277,
11926,-429,957,16965,347,661,-370,1,22,1552,270,
11946,-438,1040,16784,202,283,-406,1,18,1558,278,
11966,-524,1091,16677,-18,-81,-454,1,25,1553,281,
11987,-592,1027,16650,-190,-354,-502,1,11,1555,273,
12007,-588,963,16627,-239,-409,-570,1,20,1560,280,
12027,-543,943,16627,-216,-270,-630,1,14,1562,278,
12048,-481,862,16571,-109,0,-699,1,26,1560,276,
12068,-419,815,16418,-91,241,-708,1,15,1555,279,
12089,-413,869,16309,-180,439,-602,1,21,1561,279,
12109,-380,816,16332,-311,637,-514,1,18,1564,282,
12129,-364,778,16346,-441,731,-461,1,23,1563,271,
12150,-361,848,16257,-628,627,-391,1,29,1565,277,
12170,-393,906,16226,-841,393,-288,1,27,1567,281,
12190,-505,866,16309,-1049,95,-200,1,22,1564,276,
12211,-591,882,16365,-1216,-184,-155,1,27,1555,269,
12231,-660,871,16441,-1292,-423,-156,1,22,1558,276,
12252,-664,778,16435,-1351,-592,-159,1,23,1559,267,
12272,-727,772,16375,-1399,-716,-186,1,25,1563,271,
12292,-816,675,16273,-1397,-743,-184,1,22,1558,264,
12313,-955,579,16232,-1308,-670,-143,1,17,1559,275,
12333,-1043,611,16126,-1212,-538,-137,1,20,1562,272,
12353,-1072,752,15957,-1229,-439,-129,1,29,1559,277,
12374,-1158,872,15848,-1352,-493,-131,1,21,1563,263,
12394,-1318,831,15985,-1362,-764,-124,1,27,1561,265,
12415,-1376,858,15997,-1319,-1131,-102,1,22,1564,274,
12435,-1378,911,15897,-1256,-1421,-68,1,35,1563,267,
12455,-1418,851,15821,-1165,-1542,-29,1,24,1556,262,
12476,-1458,784,15778,-1075,-1344,-3,1,28,1562,270,
12496,-1471,736,15809,-956,-812,-42,1,23,1561,267,
12516,-1522,691,15984,-716,-148,-66,1,26,1556,270,
12537,-1577,620,15931,-463,618,-86,1,26,1558,266,
12557,-1534,676,15747,-353,1395,-54,1,28,1562,264,
12577,-1418,841,15667,-351,1996,-63,1,29,1567,265,
12598,-1407,977,15684,-428,2168,-90,1,26,1562,268,
12618,-1431,1031,15701,-583,1983,-74,1,23,1561,267,
12638,-1491,1129,15768,-750,1515,-8,1,23,1559,271,
12659,-1501,1174,15835,-865,976,-2,1,25,1569,259,
12679,-1500,1188,15842,-974,551,-16,1,29,1571,255,
12700,-1591,1205,15720,-1058,277,13,1,30,1566,264,
12720,-1634,1179,15729,-937,78,80,1,23,1565,265,
12741,-1540,1364,15759,-733,-88,233,1,28,1564,260,
12761,-1413,1244,15813,-551,-93,218,1,30,1568,264,
12781,-1420,1126,15791,-522,121,75,1,29,1561,255,
12801,-1618,1150,15754,-519,376,-42,1,31,1565,259,
12822,-1715,1266,15689,-366,480,-50,1,34,1558,264,
12842,-1660,1341,15657,-165,538,80,1,32,1568,260,
12862,-1541,1347,15944,-325,630,252,1,28,1560,262,
12883,-1573,1328,16057,-638,481,310,1,23,1571,255,
12904,-1609,1224,15987,-846,-21,159,1,26,1562,248,
12924,-1709,1080,15989,-1070,-773,-154,1,31,1559,253,
12944,-1855,1112,16101,-1310,-1429,-326,1,26,1564,250,
12965,-1946,1155,16129,-1473,-1934,-325,1,33,1563,263,
12985,-2072,996,16020,-1426,-2324,-324,1,30,1560,260,
13005,-2161,770,16034,-1349,-2450,-332,1,29,1559,253,
13026,-2202,675,16053,-1336,-2234,-338,1,30,1564,258,
13046,-2253,577,16103,-1408,-1735,-334,1,20,1560,262,
13066,-2411,404,16063,-1469,-1102,-389,1,26,1560,266,
13087,-2558,265,15922,-1399,-512,-534,1,27,1561,257,
13107,-2619,313,15867,-1204,82,-672,1,28,1560,260,
13128,-2623,496,15787,-1014,527,-679,1,33,1555,255,
13148,-2663,582,15786,-871,676,-624,1,28,1566,256,
13168,-2744,548,15841,-745,536,-577,1,39,1565,255,
13188,-2757,558,15839,-639,228,-587,1,24,1562,256,
13209,-2740,634,15729,-528,-202,-649,1,31,1565,263,
13229,-2650,729,15660,-486,-732,-613,1,28,1560,254,
13250,-2563,725,15712,-575,-1182,-531,1,35,1557,257,
13270,-2521,676,15814,-867,-1507,-396,1,37,1559,253,
13291,-2596,531,15929,-1220,-1752,-303,1,30,1566,258,
13311,-2674,355,15943,-1504,-1934,-258,1,29,1565,255,
13331,-2697,311,16030,-1825,-1959,-188,1,41,1567,257,
13351,-2732,271,16068,-2139,-1808,-82,1,32,1554,256,
13372,-2777,128,16058,-2338,-1525,-54,1,37,1565,255,
13392,-2922,67,15978,-2351,-1164,-40,1,32,1564,254,
13413,-3064,9,16105,-2327,-683,15,1,43,1557,247,
13433,-3168,-27,16236,-2408,-216,44,1,38,1564,258,
13453,-3285,51,16305,-2557,159,32,1,27,1563,257,
13474,-3429,143,16325,-2752,407,32,1,35,1559,251,
13494,-3589,256,16377,-2923,499,87,1,33,1559,251,
13515,-3705,353,16366,-3036,454,121,1,43,1567,253,
13535,-3805,433,16243,-3187,320,100,1,40,1572,252,
13555,-4023,410,16147,-3403,175,83,1,40,1568,248,
13575,-4308,317,16080,-3557,-23,98,1,43,1563,253,
13596,-4497,234,15979,-3667,-251,98,1,39,1559,247,
13616,-4660,188,15958,-3743,-406,64,1,41,1557,243,
13637,-4853,254,15792,-3601,-382,113,1,40,1570,240,
13657,-4865,222,15627,-3369,-108,230,1,43,1565,251,
13677,-4848,257,15518,-3270,318,337,1,38,1558,240,
13698,-4948,336,15525,-3308,705,468,1,52,1566,244,
13718,-5087,335,15579,-3593,936,661,1,44,1560,242,
13738,-5244,304,15528,-4116,836,859,1,45,1561,241,
13759,-5436,295,15399,-4675,323,1018,1,48,1560,232,
13779,-5684,321,15202,-5102,-302,1235,1,47,1565,237,
13800,-5870,239,15065,-5430,-835,1470,1,48,1562,238,
13820,-6042,110,15013,-5822,-1221,1668,1,49,1565,235,
13840,-6230,-53,15008,-6215,-1447,1727,1,39,1567,223,
13861,-6568,-253,15059,-6509,-1519,1644,1,56,1562,222,
13881,-6943,-394,15030,-6647,-1394,1493,1,49,1561,227,
13901,-7230,-512,14869,-6548,-1046,1297,1,47,1553,225,
13922,-7498,-536,14653,-6267,-578,1140,1,51,1551,227,
13942,-7788,-535,14551,-5871,35,995,1,57,1561,223,
13963,-8033,-459,14426,-5444,662,831,1,53,1559,219,
13983,-8249,-313,14282,-5001,1238,699,1,57,1553,221,
14003,-8441,-222,14139,-4606,1667,562,1,59,1549,207,
14024,-8594,-88,14003,-4265,1784,419,1,63,1555,221,
14044,-8697,37,13909,-3926,1649,265,1,63,1553,215,
14064,-8893,73,13856,-3694,1276,191,1,53,1555,219,
14085,-9090,53,13766,-3603,701,256,1,55,1545,217,
14105,-9141,-21,13616,-3588,-14,334,1,45,1557,211,
14125,-9128,-95,13367,-3744,-747,429,1,56,1558,214,
14146,-9207,-173,13264,-4004,-1313,550,1,57,1561,213,
14166,-9544,-365,13076,-4221,-1877,802,1,57,1557,209,
14187,-9760,-575,12802,-4373,-2415,1102,1,58,1558,208,
14207,-9705,-739,12625,-4500,-2790,1169,1,58,1552,204,
14227,-9728,-770,12586,-4539,-2941,1007,1,53,1557,209,
14248,-9871,-694,12738,-4538,-2935,822,1,50,1552,200,
14268,-10006,-482,12865,-4460,-2760,747,1,59,1555,197,
14288,-10182,-394,12686,-4251,-2305,851,1,64,1556,200,
14309,-10394,-544,12433,-3965,-1783,1030,1,67,1553,195,
14329,-10530,-785,12357,-3804,-1386,1144,1,63,1545,197,
14350,-10645,-978,12346,-3843,-1202,1119,1,61,1551,193,
14370,-10796,-1234,12093,-3966,-1101,940,1,62,1552,192,
14390,-11082,-1504,11759,-3963,-830,668,1,60,1550,192,
14411,-11338,-1621,11764,-3959,-484,426,1,63,1543,201,
14431,-11462,-1541,11929,-4115,-212,301,1,59,1557,193,
14451,-11541,-1422,11857,-4297,134,315,1,59,1547,191,
14472,-11660,-1386,11731,-4188,613,368,1,58,1546,186,
14492,-11813,-1426,11482,-3800,1070,367,1,60,1550,182,
14513,-11867,-1412,11511,-3592,1234,286,1,61,1547,185,
14533,-11874,-1219,11509,-3608,1059,132,1,64,1556,188,
14553,-11860,-980,11295,-3544,755,17,1,64,1556,188,
14574,-11848,-926,11154,-3506,423,-35,1,61,1547,185,
14594,-11972,-1008,11044,-3657,-19,-68,1,57,1553,181,
14614,-12126,-1037,10863,-3709,-372,-166,1,66,1562,180,
14635,-12305,-1186,10689,-3675,-459,-329,1,71,1557,185,
14655,-12553,-1230,10546,-3631,-258,-422,1,56,1558,186,
14675,-12744,-1221,10446,-3520,-1,-440,1,59,1553,181,
14696,-12836,-1147,10394,-3417,170,-423,1,63,1551,179,
14716,-12828,-1001,10226,-3372,180,-333,1,63,1559,181,
14736,-12867,-896,10015,-3290,74,-308,1,62,1554,172,
14757,-12891,-824,9912,-3359,-216,-232,1,65,1553,177,
14777,-12616,-221,9771,-3669,-980,121,1,60,1550,178,
14797,-12894,-817,9510,-4136,-2001,692,1,71,1549,175,
14818,-13164,-1239,9369,-4431,-2296,1124,1,64,1544,174,
14838,-13361,-1583,9420,-4638,-2334,1376,1,63,1557,167,
14859,-13342,-1698,9537,-4740,-1869,1329,1,70,1550,162,
14879,-13443,-1601,9525,-4771,-951,1288,1,62,1556,168,
14899,-13656,-1536,9288,-4724,78,1326,1,75,1549,169,
14920,-13834,-1476,8991,-4606,528,1333,1,64,1552,162,
14940,-14132,-1592,8829,-4404,547,1245,1,60,1550,160,
14961,-14351,-1672,8740,-4207,595,1154,1,58,1548,166,
14981,-14388,-1667,8550,-4009,821,1201,1,64,1548,166,
15001,-14398,-1604,8430,-3793,1039,1295,1,61,1545,165,
15022,-14592,-1666,8322,-3471,1209,1329,1,58,1550,156,
15042,-14727,-1760,8145,-3189,1504,1322,1,62,1544,154,
15063,-14778,-1780,7904,-2889,1967,1263,1,63,1547,163,
15083,-14928,-1681,7821,-2365,2355,1205,1,66,1546,162,
15103,-15119,-1632,7821,-1641,2639,1219,1,63,1539,155,
15124,-15340,-1804,7812,-740,2978,1311,1,67,1539,159,
15144,-15314,-1758,7794,52,3096,1403,1,64,1554,154,
15164,-15100,-1461,7748,535,2597,1447,1,51,1543,157,
15185,-14982,-1532,7592,773,1653,1280,1,63,1545,151,
15205,-14893,-1626,7418,994,813,936,1,63,1547,157,
15225,-14626,-1652,7395,1200,71,594,1,59,1545,153,
15246,-14367,-1545,7401,1327,-583,207,1,61,1535,155,
15266,-14204,-1517,7450,1471,-939,-153,1,54,1544,162,
15286,-14136,-1471,7573,1599,-1049,-376,1,65,1547,155,
15307,-14152,-1520,7646,1718,-741,-571,1,61,1539,157,
15327,-14120,-1612,7645,1888,-84,-745,1,63,1539,157,
15347,-14013,-1510,7724,1954,356,-854,1,68,1544,156,
15368,-13879,-1539,7873,1695,525,-889,1,70,1544,160,
15388,-13778,-1498,8116,1308,779,-892,1,71,1535,159,
15409,-13935,-1345,8316,975,925,-880,1,64,1544,154,
15429,-13952,-1129,8605,843,656,-879,1,57,1549,165,
15449,-13838,-971,8810,933,154,-936,1,60,1548,158,
15470,-13749,-1044,8893,1123,-259,-1011,1,63,1539,163,
15490,-13795,-1191,8846,1277,-581,-1022,1,63,1547,163,
15511,-13891,-1171,8622,1132,-829,-1025,1,67,1549,161,
15531,-13949,-1529,8556,816,-836,-838,1,57,1543,157,
15551,-14063,-1492,8553,533,-663,-553,1,62,1552,156,
15572,-13973,-1372,8676,248,-517,-376,1,64,1542,160,
15592,-13803,-1623,8829,154,-571,3,1,64,1550,166,
15612,-13895,-1527,8614,149,-735,511,1,65,1551,171,
15633,-14100,-1202,8384,2,-923,673,1,66,1550,162,
15653,-14265,-1162,8484,10,-1080,585,1,63,1547,165,
15673,-14559,-1260,8811,301,-1233,542,1,62,1550,164,
15694,-14576,-1404,8606,545,-1507,526,1,60,1544,166,
15714,-14280,-1671,8647,584,-1694,703,1,67,1543,159,
15734,-14021,-1668,8728,547,-2018,894,1,66,1548,170,
15755,-13893,-1671,8434,227,-2395,1031,1,63,1555,165,
15775,-13845,-1538,8149,-391,-2517,992,1,72,1544,168,
15796,-13910,-1670,8534,-642,-2473,852,1,73,1551,165,
15816,-14041,-1632,8957,-421,-2528,765,1,61,1551,163,
15836,-14171,-1785,9121,39,-2455,543,1,59,1545,167,
15857,-14108,-2167,9180,599,-2114,371,1,67,1551,159,
15877,-14089,-2138,8990,979,-1669,269,1,62,1546,170,
15898,-14122,-2075,9027,1251,-1409,121,1,59,1547,161,
15918,-14068,-2171,9050,1533,-1595,44,1,59,1545,171,
15938,-13900,-2282,9011,1691,-1881,42,1,67,1549,169,
15959,-13768,-2256,9078,1748,-1918,2,1,61,1551,173,
15979,-13611,-2194,9100,1785,-1664,-82,1,66,1546,172,
15999,-13447,-2183,9071,1744,-1198,-250,1,67,1549,175,
16020,-13366,-2247,9041,1675,-567,-455,1,60,1550,174,
16040,-13094,-2306,9075,1561,-86,-657,1,57,1547,169,
16060,-12912,-2244,9064,1295,81,-828,1,68,1552,170,
16081,-12920,-2215,9156,981,-50,-898,1,69,1553,173,
16101,-13136,-2228,9231,675,-195,-864,1,66,1556,176,
16122,-13504,-2154,9285,349,-67,-841,1,64,1546,172,
16142,-13787,-2149,9348,171,210,-861,1,62,1550,168,
16162,-13936,-2222,9181,-21,427,-756,1,56,1546,174,
16183,-13688,-2280,9023,-249,391,-527,1,74,1556,168,
16203,-13434,-2327,9139,-358,84,-236,1,72,1550,172,
16223,-13380,-2291,9211,-326,-208,81,1,71,1555,165,
16244,-13329,-2301,9254,-232,-282,298,1,63,1545,173,
16264,-13447,-2336,9283,-107,-186,494,1,64,1552,176,
16284,-13678,-2256,9015,-98,-73,631,1,67,1553,169,
16305,-13872,-2160,8949,-174,-63,663,1,59,1543,175,
16325,-14064,-2196,8972,-313,-244,707,1,66,1554,168,
16346,-14177,-2050,8994,-524,-410,747,1,67,1547,169,
16366,-13933,-2068,9366,-475,-400,589,1,68,1548,166,
16386,-13788,-2299,9615,-104,-215,566,1,66,1554,170,
16407,-13766,-2418,9568,263,253,667,1,60,1546,168,
16427,-13708,-2393,9516,500,765,658,1,63,1551,179,
16447,-13675,-2212,9474,567,1172,525,1,57,1559,165,
16468,-13657,-2133,9527,562,1564,267,1,65,1549,173,
16488,-13742,-2382,9743,637,1711,203,1,57,1557,173,
16509,-13836,-2351,9838,715,1401,369,1,57,1551,183,
16529,-13703,-2066,9829,717,1026,446,1,62,1556,170,
16549,-13422,-1955,9801,685,905,342,1,59,1551,181,
16570,-13362,-1903,9724,504,771,220,1,59,1553,177,
16590,-13132,-1729,9595,208,310,34,1,50,1558,174,
16610,-13083,-1668,9351,-231,-653,-216,1,65,1559,175,
16631,-13148,-1683,9061,-555,-1650,-270,1,69,1555,171,
16651,-13211,-1689,8939,-672,-2276,-219,1,63,1559,173,
16672,-13361,-1871,8847,-692,-2322,-92,1,56,1560,176,
16692,-13588,-2156,8913,-452,-1651,270,1,63,1553,175,
16712,-13793,-2354,9001,254,-486,913,1,58,1560,180,
16733,-13828,-2417,8940,1273,899,1302,1,57,1547,175,
16753,-13883,-2634,9110,2232,2263,1435,1,62,1550,172,
16773,-13734,-2696,9373,3144,3641,1435,1,55,1559,179,
16794,-13211,-2421,9684,3505,4176,877,1,65,1555,183,
16814,-12965,-2310,9774,3164,3644,-6,1,64,1560,178,
16834,-12780,-2211,9957,2399,2868,-816,1,63,1551,185,
16855,-12768,-2066,9927,1442,1725,-1523,1,60,1560,172,
16875,-12933,-1984,9734,516,326,-1832,1,66,1556,176,
16895,-13113,-1947,9722,-317,-1264,-1719,1,57,1551,181,
16916,-13219,-1991,9748,-995,-2724,-1232,1,62,1564,180,
16936,-13181,-1997,9702,-1504,-3490,-704,1,60,1558,180,
16956,-13241,-2088,9774,-1835,-3549,-239,1,63,1557,181,
16977,-13389,-2194,9883,-1800,-2956,212,1,63,1557,183,
16997,-13411,-2249,9910,-1344,-1830,447,1,67,1561,183,
17018,-13272,-2154,9870,-558,-374,324,1,60,1562,174,
17038,-13154,-2027,9686,206,731,-99,1,57,1561,175,
17058,-13056,-1873,9493,726,1306,-579,1,61,1559,179,
17079,-12921,-1659,9604,970,1145,-858,1,65,1553,165,
17099,-12826,-1426,9795,806,137,-788,1,62,1566,178,
17119,-12784,-1483,9912,584,-716,-516,1,68,1556,176,
17140,-12774,-1657,9983,589,-973,-235,1,68,1560,184,
17160,-12687,-1665,9983,752,-556,-156,1,56,1560,180,
17181,-12791,-1708,9896,802,111,-122,1,68,1556,182,
17201,-13012,-1760,9829,692,558,207,1,56,1564,180,
17222,-13129,-1768,9826,569,516,701,1,60,1556,184,
17242,-13079,-1822,9987,594,209,1186,1,67,1555,175,
17262,-12936,-1825,10228,808,25,1563,1,65,1555,181,
17283,-12778,-1791,10572,1000,480,1877,1,62,1562,176,
17303,-12576,-1559,10954,1152,1092,2049,1,62,1562,182,
17323,-12494,-1622,11213,1036,1290,2087,1,62,1556,186,
17344,-12463,-1927,11015,549,782,1900,1,74,1554,182,
17364,-12463,-2208,10739,-249,129,1483,1,61,1553,175,
17384,-12597,-2509,10422,-820,54,1131,1,62,1556,184,
17405,-12740,-2420,10295,-950,539,883,1,62,1554,180,
17425,-12904,-2247,10236,-743,630,683,1,63,1549,183,
17445,-12922,-2192,10268,-416,617,497,1,62,1558,180,
17466,-12974,-2223,10232,-302,818,314,1,71,1563,183,
17486,-13093,-2257,10100,-476,938,163,1,57,1561,185,
17507,-13171,-2152,10017,-727,933,171,1,65,1565,185,
17527,-13111,-2024,10013,-871,847,409,1,63,1555,187,
17547,-13019,-2035,9871,-1056,590,782,1,67,1561,183,
17567,-13025,-2116,9819,-1243,243,1032,1,66,1558,180,
17588,-13115,-2170,9749,-1280,96,1195,1,69,1557,187,
17608,-13175,-2108,9677,-1206,226,1327,1,63,1555,181,
17629,-13171,-2001,9685,-1048,71,1369,1,60,1554,182,
17649,-13187,-2069,9741,-742,-468,1277,1,63,1555,181,
17669,-13211,-2344,9740,-333,-1001,1172,1,64,1554,184,
17690,-13094,-2656,9868,-77,-1302,962,1,71,1555,185,
17710,-13064,-2776,9785,-131,-1157,786,1,57,1555,189,
17730,-13136,-2859,9939,-59,-360,844,1,65,1549,177,
17751,-13177,-2773,9846,156,188,919,1,67,1549,175,
17771,-13147,-2672,9791,224,258,882,1,59,1557,185,
17792,-13085,-2559,9822,151,-48,821,1,65,1547,179,
17812,-13014,-2465,9772,-45,-419,817,1,72,1552,180,
17832,-12909,-2446,9693,-351,-674,908,1,69,1545,183,
17853,-12871,-2539,9715,-549,-763,1078,1,76,1550,176,
17873,-12858,-2555,9976,-642,-992,1258,1,64,1548,186,
17894,-12952,-2682,9780,-682,-1440,1292,1,76,1542,188,
17914,-13070,-2880,9528,-799,-1669,1329,1,66,1548,180,
17934,-13134,-3107,9430,-788,-1694,1475,1,70,1558,176,
17955,-13185,-3383,9499,-641,-1878,1775,1,76,1558,186,
17975,-13271,-3571,9631,-335,-2284,2168,1,80,1552,176,
17995,-13183,-3698,9752,-149,-2545,2368,1,73,1549,175,
18016,-12990,-3846,9981,-126,-2467,2175,1,72,1548,176,
18036,-12866,-3905,10120,-140,-2000,1631,1,74,1556,180,
18056,-12774,-3887,10055,-228,-1374,1016,1,75,1549,181,
18077,-12754,-3859,9890,-540,-943,459,1,70,1550,178,
18097,-12756,-3917,9745,-995,-926,-13,1,77,1553,185,
18117,-12896,-3897,9608,-1276,-1160,-220,1,67,1551,181,
18138,-12993,-3977,9690,-1279,-1343,-120,1,79,1553,183,
18158,-13138,-3980,9542,-1112,-1320,89,1,69,1555,177,
18178,-13087,-3931,9524,-973,-844,215,1,71,1555,179,
18199,-13070,-3810,9501,-682,-209,240,1,75,1553,179,
18219,-13036,-3701,9410,-280,572,332,1,74,1554,176,
18240,-13021,-3671,9328,51,1139,557,1,69,1551,171,
18260,-13050,-3696,9266,260,1449,749,1,72,1558,178,
18280,-13122,-3749,9205,407,1662,869,1,69,1555,179,
18301,-13057,-3764,9180,601,1761,986,1,65,1547,171,
18321,-13043,-3724,9108,843,1796,1183,1,69,1551,173,
18342,-12939,-3668,9161,1096,1585,1467,1,71,1551,171,
18362,-12684,-3698,9351,1266,1226,1614,1,73,1547,171,
18382,-12515,-3904,9321,1375,821,1361,1,77,1553,169,
18403,-12904,-4096,9410,1251,805,1100,1,72,1550,174,
18423,-12878,-4176,9667,1126,917,1163,1,67,1557,183,
18443,-12909,-4198,9665,1039,985,1170,1,62,1550,174,
18464,-12854,-4228,9737,874,798,1012,1,71,1543,177,
18484,-12878,-4175,9795,679,496,773,1,65,1543,169,
18504,-12913,-4059,9772,526,251,562,1,69,1541,169,
18525,-12890,-3900,9777,570,96,463,1,68,1552,174,
18545,-12845,-3913,9760,861,94,415,1,73,1553,175,
18566,-12703,-3984,9893,1242,142,450,1,68,1538,176,
18586,-12658,-3953,9828,1456,37,501,1,72,1552,180,
18606,-12560,-4083,9892,1501,217,594,1,70,1554,182,
18627,-12486,-4090,10101,1532,695,666,1,67,1549,185,
18647,-12414,-4014,10339,1551,994,651,1,72,1556,176,
18667,-12344,-3948,10494,1528,1117,620,1,66,1544,190,
18688,-12290,-4010,10500,1498,1382,693,1,68,1552,176,
18708,-12258,-3932,10452,1479,1537,899,1,74,1546,166,
18729,-12117,-3728,10451,1652,1346,1062,1,62,1552,176,
18749,-11969,-3697,10403,1970,922,1135,1,71,1543,173,
18769,-11880,-3655,10325,2279,483,1154,1,66,1548,184,
18790,-11701,-3650,10296,2470,61,1031,1,71,1541,191,
18810,-11627,-3759,10249,2544,-170,769,1,71,1547,177,
18831,-11718,-3961,10373,2630,-188,506,1,73,1551,187,
18851,-11747,-3980,10601,2831,-218,310,1,70,1544,186,
18871,-11576,-3901,10773,2983,-355,166,1,59,1539,193,
18892,-11296,-3906,10966,2934,-739,86,1,70,1536,192,
18912,-11359,-3826,11288,2547,-1184,238,1,62,1538,198,
18932,-11297,-4041,11659,2223,-1227,315,1,70,1538,190,
18953,-11412,-4245,11772,1768,-859,319,1,76,1538,194,
18973,-11316,-4275,11852,970,-564,233,1,76,1534,192,
18993,-11219,-4302,12054,134,-479,91,1,74,1534,188,
19014,-11107,-4363,12083,-602,-284,34,1,61,1537,191,
19034,-11070,-4304,12004,-1378,-112,-4,1,68,1538,190,
19055,-11135,-4265,11681,-2264,-90,-150,1,70,1542,194,
19075,-11189,-4398,11481,-3310,-93,-334,1,70,1544,188,
19095,-11416,-4224,11325,-4333,36,-521,1,70,1536,180,
19115,-11702,-4211,11169,-5116,278,-804,1,68,1540,188,
19136,-11987,-4317,10958,-5638,557,-1038,1,74,1540,182,
19156,-12303,-4281,10763,-5905,748,-1160,1,71,1535,183,
19176,-12576,-4181,10551,-5880,998,-1217,1,67,1541,177,
19197,-12784,-4060,10251,-5659,1279,-1238,1,65,1543,179,
19217,-12952,-3817,9931,-5348,1400,-1250,1,69,1545,179,
19238,-13071,-3589,9712,-4999,1314,-1322,1,62,1550,178,
19258,-13194,-3474,9484,-4634,1127,-1430,1,67,1547,173,
19278,-13270,-3443,9268,-4328,920,-1567,1,69,1543,183,
19299,-13336,-3358,9095,-4122,715,-1720,1,69,1543,181,
19319,-13370,-3280,8916,-4026,475,-1831,1,70,1544,182,
19340,-13347,-3134,8799,-4114,235,-1876,1,64,1546,174,
19360,-13367,-3107,8690,-4391,36,-1837,1,66,1548,170,
19380,-13392,-3111,8525,-4885,-42,-1745,1,62,1546,164,
19401,-13469,-3044,8378,-5574,-102,-1687,1,66,1548,174,
19421,-13558,-3066,8258,-6226,-70,-1656,1,76,1546,174,
19441,-13669,-3086,8125,-6779,30,-1556,1,65,1551,167,
19462,-13825,-3063,7915,-7289,144,-1293,1,68,1550,166,
19482,-14067,-3051,7740,-7705,267,-948,1,63,1551,161,
19503,-14343,-3013,7568,-8041,489,-606,1,56,1546,158,
19523,-14562,-2981,7330,-8239,714,-449,1,66,1550,158,
19543,-14762,-2890,7023,-8386,855,-444,1,62,1544,146,
19564,-15003,-2850,6758,-8446,895,-505,1,54,1546,140,
19584,-15260,-2917,6513,-8282,1010,-421,1,53,1543,151,
19604,-15458,-2955,6216,-7984,1220,-204,1,51,1545,147,
19625,-15485,-2789,5903,-7771,1253,35,1,61,1555,143,
19645,-15619,-2704,5512,-7743,1145,186,1,61,1551,139,
19665,-15700,-2681,5152,-7841,1028,254,1,60,1550,146,
19686,-15769,-2615,4879,-7922,1094,132,1,54,1558,142,
19706,-15842,-2518,4480,-7862,1313,-76,1,59,1545,139,
19726,-15866,-2333,4073,-7723,1291,-264,1,49,1545,131,
19747,-15916,-2246,3693,-7581,978,-344,1,51,1543,135,
19767,-15998,-2356,3300,-7447,757,-325,1,45,1545,133,
19787,-16020,-2323,2905,-7442,677,-305,1,47,1547,139,
19808,-16101,-2353,2512,-7449,618,-327,1,43,1545,129,
19828,-16193,-2403,2170,-7384,563,-287,1,53,1543,127,
19849,-16265,-2462,1788,-7280,513,-205,1,47,1543,125,
19869,-16321,-2437,1409,-7219,476,-83,1,46,1550,120,
19889,-16346,-2352,1100,-7224,387,-9,1,41,1545,117,
19910,-16328,-2429,707,-7326,374,36,1,44,1544,128,
19930,-16292,-2448,302,-7768,359,169,1,47,1555,115,
19950,-16318,-2314,2,-8413,321,256,1,36,1548,116,
19971,-16357,-2269,-245,-8915,344,230,1,30,1546,112,
19991,-16380,-2492,-516,-9166,446,182,1,44,1546,118,
20011,-16496,-2226,-906,-9362,937,95,1,34,1542,114,
20032,-16532,-2119,-1268,-9346,677,123,1,33,1543,109,
20052,-16526,-2205,-1640,-9163,451,221,1,32,1548,108,
20073,-16496,-2201,-1973,-8864,403,294,1,27,1545,105,
20093,-16470,-2252,-2323,-8434,468,353,1,24,1536,102,
20113,-16379,-2230,-2749,-7970,431,363,1,28,1548,114,
20134,-16323,-2304,-3195,-7821,229,373,1,22,1548,102,
20154,-16320,-2369,-3568,-8061,6,362,1,19,1541,95,
20175,-16259,-2290,-3879,-8631,-196,234,1,23,1545,95,
20195,-16187,-2280,-4219,-9348,-178,-67,1,20,1540,90,
20215,-16097,-2232,-4559,-9881,-92,-380,1,11,1547,105,
20236,-15944,-2200,-4929,-10205,-65,-644,1,14,1546,96,
20256,-15749,-2195,-5374,-10342,-144,-731,1,6,1532,92,
20276,-15616,-2177,-5792,-10324,-275,-665,1,9,1547,95,
20297,-15474,-2173,-6126,-10181,-376,-542,1,1,1551,97,
20317,-15366,-2175,-6440,-9851,-179,-466,1,0,1546,98,
20337,-15191,-2213,-6827,-9462,114,-443,1,-3,1545,97,
20358,-14992,-2187,-7250,-9245,266,-442,1,-2,1544,92,
20378,-14805,-2215,-7659,-9239,292,-474,1,-5,1551,93,
20398,-14685,-2162,-8364,-8937,290,-624,1,-8,1540,90,
20419,-14443,-2136,-9043,-8274,64,-730,1,-14,1542,88,
20439,-14081,-2184,-9560,-7748,-222,-593,1,-11,1547,85,
20459,-13704,-2159,-9815,-7817,-467,-280,1,-6,1544,88,
20480,-13427,-2120,-9851,-8670,-684,-11,1,-20,1540,94,
20500,-13222,-2121,-9803,-9793,-660,40,1,-25,1553,99,
20521,-13089,-2154,-9816,-10640,-357,-107,1,-21,1549,89,
20541,-12903,-2187,-10107,-10987,-17,-241,1,-18,1550,88,
20561,-12730,-2204,-10492,-10954,154,-269,1,-35,1547,91,
20582,-12427,-2242,-10961,-10663,273,-180,1,-30,1544,88,
20602,-12133,-2232,-11386,-10104,343,32,1,-39,1553,85,
20623,-11901,-2180,-11714,-9548,454,187,1,-40,1550,96,
20643,-11695,-2202,-12041,-9088,548,272,1,-45,1545,89,
20663,-11428,-2184,-12357,-8707,683,221,1,-47,1547,89,
20673,-11342,-2198,-12508,-8519,781,139,1,-37,1539,85,
20694,-11110,-2239,-12824,-8107,951,-31,1,-43,1555,83,
20714,-10794,-2278,-13076,-7631,1088,-150,1,-49,1541,87,
20734,-10366,-2267,-13283,-7161,1263,-129,1,-52,1546,90,
20755,-9998,-2271,-13410,-6851,1320,70,1,-58,1544,88,
20775,-9811,-2333,-13540,-6635,1355,252,1,-51,1539,95,
20795,-9724,-2369,-13710,-6442,1495,232,1,-48,1544,86,
20816,-9558,-2370,-13955,-6048,1648,63,1,-56,1550,90,
20836,-9341,-2500,-14219,-5485,1664,17,1,-47,1545,93,
20857,-9132,-2592,-14480,-4961,1621,229,1,-53,1549,95,
20877,-8961,-2645,-14659,-4639,1522,560,1,-70,1542,96,
20897,-8814,-2728,-14780,-4679,1391,850,1,-65,1545,95,
20918,-8735,-2806,-14859,-5117,1371,934,1,-59,1541,97,
20938,-8800,-2833,-14993,-5656,1255,849,1,-68,1540,94,
20959,-8781,-2908,-15048,-6056,925,687,1,-65,1539,97,
20979,-8510,-2968,-15135,-6340,844,527,1,-75,1539,95,
20999,-8039,-2820,-15288,-6610,956,332,1,-74,1548,96,
21020,-7574,-2799,-15408,-6833,976,257,1,-70,1536,88,
21040,-7062,-2793,-15562,-6904,893,338,1,-83,1537,97,
21060,-6497,-2646,-15709,-6707,739,393,1,-75,1539,99,
21081,-5951,-2668,-15779,-6593,690,320,1,-77,1541,97,
21101,-5808,-2780,-15897,-6386,898,-32,1,-75,1543,103,
21121,-5696,-2983,-16004,-5860,956,-417,1,-78,1542,96,
21142,-5654,-2803,-15946,-5144,640,-646,1,-81,1547,109,
21162,-5815,-3110,-15896,-4347,185,-635,1,-82,1536,98,
21182,-5735,-3377,-16068,-3542,-6,-337,1,-87,1539,101,
21203,-5523,-3285,-16074,-3094,-263,103,1,-79,1535,105,
21223,-5532,-3198,-16002,-3165,-513,353,1,-90,1538,104,
21244,-5334,-3313,-16264,-3136,-414,519,1,-86,1536,104,
21264,-4799,-3152,-16508,-3433,-311,771,1,-86,1546,98,
21284,-4885,-3252,-16654,-4303,-366,795,1,-87,1541,107,
21305,-4815,-3250,-16586,-5133,-284,621,1,-86,1540,104,
21325,-4606,-3155,-16385,-5592,-405,519,1,-89,1543,97,
21346,-4495,-3145,-16084,-5692,-306,413,1,-91,1543,107,
21366,-4117,-3086,-15987,-5509,112,197,1,-85,1543,103,
21386,-3706,-3202,-16356,-5151,291,95,1,-89,1529,109,
21407,-3314,-3033,-16648,-5110,-290,231,1,-90,1544,108,
21427,-3240,-2822,-16607,-5369,-1363,210,1,-94,1538,104,
21447,-3075,-2929,-16508,-5364,-2207,-59,1,-93,1541,117,
21468,-2880,-3050,-16385,-5169,-2453,-215,1,-94,1536,110,
21488,-2528,-3263,-16455,-4874,-2195,-195,1,-95,1539,109,
21508,-2084,-3114,-16675,-4519,-1914,3,1,-96,1540,110,
21529,-1878,-2619,-16774,-4552,-2173,133,1,-83,1539,111,
21549,-1889,-2218,-16716,-5005,-2825,-24,1,-98,1536,118,
21569,-1658,-2223,-16517,-5495,-3203,-375,1,-111,1541,105,
21590,-1524,-2310,-16367,-5737,-2949,-522,1,-108,1536,114,
21610,-1116,-2315,-15982,-5507,-2839,-456,1,-113,1535,115,
21631,-731,-2298,-15994,-5105,-2792,-493,1,-103,1539,113,
21651,-472,-2312,-16184,-4841,-2400,-496,1,-97,1545,119,
21671,-390,-2240,-16330,-4872,-1658,-379,1,-106,1546,118,
21692,-265,-2134,-16235,-5059,-746,-281,1,-108,1540,116,
21712,-85,-1946,-15937,-5032,-102,-298,1,-115,1537,123,
21732,-29,-1845,-15629,-4538,-116,-337,1,-108,1548,124,
21753,141,-1878,-15546,-3771,-458,-326,1,-107,1539,123,
21773,101,-1943,-15618,-3129,-798,-153,1,-107,1539,121,
21793,92,-1889,-15792,-2536,-740,222,1,-106,1546,130,
21814,185,-1778,-15916,-2128,-149,676,1,-110,1544,124,
21834,368,-1590,-16151,-1949,696,968,1,-111,1543,125,
21854,558,-1437,-16387,-1978,1581,948,1,-115,1547,121,
21875,770,-1382,-16752,-2186,2314,543,1,-121,1545,121,
21895,1002,-1413,-17076,-2452,2871,-137,1,-121,1545,123,
21916,1137,-1565,-17326,-2911,3171,-914,1,-109,1545,117,
21936,1291,-1822,-17447,-3515,3324,-1518,1,-114,1542,126,
21956,1488,-2096,-17501,-3927,3384,-1850,1,-118,1542,126,
21977,1657,-2378,-17466,-4226,3119,-1869,1,-116,1534,134,
21997,2009,-2667,-17370,-4474,2650,-1707,1,-118,1528,126,
22018,2361,-2933,-17145,-4690,2085,-1498,1,-123,1537,135,
22038,2569,-3206,-16907,-4712,1374,-1183,1,-121,1543,131,
22058,2805,-3445,-16766,-4368,651,-742,1,-128,1544,132,
22079,3027,-3691,-16646,-4024,-164,-188,1,-115,1539,137,
22099,3150,-3820,-16555,-3865,-986,510,1,-119,1541,131,
22119,3337,-3793,-16375,-3656,-1717,1368,1,-116,1534,136,
22140,3559,-3667,-16194,-3395,-2316,2219,1,-113,1541,131,
22160,3759,-3489,-16115,-3125,-2682,2976,1,-117,1535,119,
22180,3895,-3325,-16152,-2996,-2935,3529,1,-122,1544,132,
22201,3943,-3078,-16107,-3042,-3130,4018,1,-125,1545,141,
22221,4060,-2725,-15869,-3198,-3022,4450,1,-129,1549,141,
22241,4206,-2329,-15633,-3312,-2617,4619,1,-122,1548,144,
22262,4411,-2023,-15472,-3166,-1922,4412,1,-121,1553,141,
22282,4477,-1843,-15506,-2910,-1257,3896,1,-128,1554,138,
22303,4305,-1756,-15676,-2656,-852,3408,1,-129,1555,143,
22323,4168,-1690,-15852,-2590,-869,3148,1,-118,1550,148,
22344,4145,-1615,-15905,-2748,-1137,3069,1,-123,1557,145,
22364,4166,-1500,-15884,-2813,-1454,3018,1,-129,1549,147,
22384,4343,-104,-15966,-2709,-2125,2569,1,-129,1551,149,
22404,4325,458,-16139,-2478,-3136,1292,1,-132,1562,148,
22425,4406,44,-17104,-3000,-2241,386,1,-127,1551,145,
22445,4541,266,-17395,-4179,-349,-329,1,-130,1550,144,
22466,4827,-86,-17234,-5283,1012,-838,1,-127,1559,145,
22486,5200,-874,-16668,-6149,2150,-935,1,-128,1552,144,
22506,5741,-1445,-16466,-6632,3208,-726,1,-132,1552,152,
22527,6308,-1506,-16030,-6556,3087,-730,1,-122,1552,156,
22547,6429,-1618,-16105,-6563,1874,-819,1,-130,1550,162,
22567,6573,-1390,-15862,-6685,656,-777,1,-135,1559,167,
22588,6683,-1110,-15446,-6753,-144,-718,1,-134,1558,168,
22608,6869,-1129,-15095,-6663,-480,-543,1,-133,1553,161,
22628,7255,-1172,-14571,-6320,-603,-360,1,-137,1555,167,
22649,7532,-1362,-14386,-5864,-821,-166,1,-128,1560,170,
22669,7749,-1507,-14559,-5542,-933,58,1,-130,1552,170,
22690,7793,-1440,-14633,-5669,-835,187,1,-139,1551,169,
22710,7912,-1398,-14521,-5921,-982,282,1,-132,1548,170,
22730,8200,-1533,-14345,-6065,-1417,447,1,-138,1558,180,
22751,8419,-1590,-14257,-6240,-1753,670,1,-137,1563,177,
22771,8612,-1491,-14106,-6556,-1719,818,1,-138,1562,178,
22791,8981,-1359,-13775,-6904,-1210,879,1,-127,1557,181,
22812,9407,-1218,-13469,-7185,-252,771,1,-131,1567,187,
22832,9769,-1250,-13432,-7353,867,652,1,-134,1568,184,
22853,10173,-1302,-13449,-7474,1743,500,1,-139,1559,193,
22873,10527,-1365,-13298,-7584,1922,308,1,-132,1562,194,
22893,10656,-1419,-13054,-7788,1687,131,1,-143,1561,197,
22914,10791,-1435,-12737,-8112,1301,26,1,-139,1561,199,
22934,10799,-1345,-12330,-8563,802,30,1,-138,1552,200,
22955,10861,-1239,-11965,-9127,-8,-55,1,-144,1562,212,
22975,10953,-1242,-11752,-9693,-1044,-290,1,-140,1562,208,
22995,11097,-1209,-11538,-10080,-1851,-526,1,-144,1564,214,
23016,11307,-1109,-11218,-10380,-2377,-705,1,-135,1553,215,
23036,11739,-1038,-10647,-10594,-2625,-893,1,-139,1563,219,
23056,12010,-1103,-10065,-10719,-2446,-966,1,-138,1556,226,
23077,12160,-1100,-9627,-10812,-1747,-952,1,-136,1552,222,
23097,12379,-1096,-9316,-10818,-874,-1049,1,-142,1562,222,
23117,12805,-1125,-8941,-10866,-408,-1178,1,-133,1559,229,
23138,13104,-1145,-8562,-11124,-661,-1261,1,-142,1552,230,
23158,13186,-1146,-8028,-11602,-1396,-1365,1,-142,1544,238,
23178,13255,-1130,-7514,-12095,-2307,-1572,1,-137,1559,247,
23199,13444,-1333,-7402,-12074,-2957,-1914,1,-134,1558,236,
23219,13841,-1656,-7336,-11241,-3104,-2511,1,-129,1549,247,
23240,14262,-1817,-6914,-10043,-2765,-3124,1,-135,1549,243,
23260,14775,-1826,-6284,-9235,-2290,-3485,1,-126,1544,238,
23280,15196,-1819,-5484,-9234,-1886,-3628,1,-133,1553,251,
23301,15245,-1764,-4421,-10287,-1857,-3632,1,-129,1543,243,
23321,15022,-1853,-3861,-11622,-2156,-3639,1,-125,1537,261,
23341,15017,-2106,-3427,-12643,-2651,-3926,1,-128,1540,256,
23362,15046,-2380,-2826,-13067,-3255,-4359,1,-120,1534,258,
23382,15219,-2657,-2387,-12944,-3734,-4848,1,-120,1540,266,
23402,15402,-2928,-1975,-12474,-3669,-5441,1,-111,1543,271,
23423,15363,-3038,-1519,-11797,-3165,-5895,1,-118,1538,270,
23443,15356,-3129,-1127,-10974,-2514,-6096,1,-112,1542,272,
23463,15309,-3210,-716,-10158,-1737,-5903,1,-111,1533,275,
23484,15364,-3267,-427,-9581,-993,-5276,1,-120,1526,280,
23504,15474,-3216,-114,-9290,-340,-4379,1,-108,1538,274,
23524,15446,-3231,215,-9082,-42,-3227,1,-106,1534,282,
23545,15487,-3342,542,-8818,-31,-2098,1,-109,1535,281,
23565,15580,-3572,857,-8410,-193,-1078,1,-99,1529,279,
23585,15778,-3812,1123,-7839,-273,-263,1,-98,1528,286,
23606,15829,-3953,1363,-7291,80,270,1,-102,1528,280,
23626,15873,-4039,1538,-6881,794,612,1,-95,1537,281,
23647,15974,-4083,1708,-6598,1348,754,1,-97,1533,289,
23667,16018,-4050,1841,-6481,1533,707,1,-99,1537,291,
23687,16025,-3954,1982,-6576,1616,603,1,-95,1539,295,
23708,16033,-3876,2213,-6845,1625,523,1,-101,1533,287,
23728,15933,-3813,2516,-7023,1400,530,1,-92,1538,294,
23748,15768,-3701,2851,-7016,1152,674,1,-94,1532,290,
23769,15615,-3520,3177,-6958,1212,964,1,-92,1540,288,
23789,15520,-3428,3505,-6882,1280,1334,1,-92,1532,292,
23810,15454,-3417,3797,-6685,1101,1696,1,-84,1538,290,
23830,15272,-3364,4114,-6262,972,2059,1,-80,1534,298,
23850,15031,-3241,4418,-5739,1155,2401,1,-86,1538,288,
23871,14953,-3210,4655,-5196,1400,2682,1,-87,1533,299,
23891,14897,-3196,4860,-4608,1539,2841,1,-84,1536,300,
23911,14790,-3138,5072,-4086,1673,2881,1,-75,1539,301,
23932,14748,-3044,5207,-3712,1824,2842,1,-81,1549,301,
23952,14750,-2965,5403,-3573,1899,2721,1,-81,1545,297,
23973,14756,-2910,5674,-3656,1840,2594,1,-76,1548,304,
23993,14808,-2814,5865,-3989,1786,2480,1,-88,1544,300,
24013,14536,-2758,6413,-4647,1786,2255,1,-74,1548,302,
24034,12427,-2669,7341,-5473,2693,1412,1,-81,1553,305,
24054,13407,-3053,7882,-5976,3639,362,1,-78,1542,298,
24074,13473,-3042,7622,-6233,2801,-566,1,-80,1554,300,
24095,13583,-3020,7581,-6285,1757,-1277,1,-71,1555,303,
24115,13672,-2878,7302,-6053,860,-1863,1,-69,1555,297,
24136,13989,-2859,6823,-5541,494,-2207,1,-69,1543,301,
24156,14334,-2741,6464,-5160,321,-2281,1,-67,1551,299,
24176,14191,-2639,6656,-4852,-26,-1989,1,-64,1546,290,
24197,13756,-2360,7381,-4292,-697,-1473,1,-63,1553,299,
24217,13118,-2276,8367,-3549,-1109,-929,1,-72,1546,294,
24237,12818,-2390,9124,-2684,-915,-379,1,-67,1549,305,
24258,12660,-2691,9549,-2013,-354,-134,1,-69,1541,301,
24278,12577,-2928,9398,-1733,40,-176,1,-65,1551,305,
24298,12637,-3172,9111,-1986,368,-475,1,-65,1547,299,
24319,12960,-3323,8924,-2758,828,-1043,1,-64,1552,300,
24339,12886,-3282,8910,-3666,780,-1816,1,-62,1558,300,
24359,12723,-3154,8781,-4590,-47,-2636,1,-67,1555,303,
24380,12417,-3206,8938,-5354,-1319,-3334,1,-70,1546,296,
24400,12198,-3276,9180,-5967,-2568,-3903,1,-64,1548,302,
24420,11837,-3519,9525,-6353,-3705,-4249,1,-66,1544,300,
24441,11706,-3872,9844,-6565,-4343,-4300,1,-52,1546,298,
24461,11749,-4219,10165,-6657,-4519,-4265,1,-60,1536,306,
24482,11743,-4580,10323,-6504,-4173,-4098,1,-51,1537,309,
24502,11710,-4786,10503,-6162,-3370,-3816,1,-47,1541,299,
24522,11570,-4777,10545,-5620,-2548,-3447,1,-51,1541,303,
24543,11368,-4741,10665,-4996,-2075,-3065,1,-57,1535,313,
24563,11075,-4555,11058,-4309,-1847,-2665,1,-56,1530,308,
24584,10967,-4622,11417,-3625,-1843,-2249,1,-50,1540,310,
24604,10852,-4746,11375,-3219,-1962,-1776,1,-49,1539,305,
24624,10907,-4783,11201,-3242,-1715,-1451,1,-40,1542,304,
24645,10921,-4928,11151,-3614,-883,-1301,1,-41,1541,305,
24665,10626,-5224,11335,-4130,313,-886,1,-46,1546,306,
24685,10596,-5211,11513,-4706,1277,-346,1,-38,1544,308,
24706,10413,-5314,11625,-5607,1847,110,1,-40,1546,312,
24726,9976,-5409,12087,-6630,1839,726,1,-40,1542,302,
24746,9624,-5367,12407,-7589,1320,1126,1,-33,1547,301,
24767,9350,-5409,12886,-8348,167,1151,1,-36,1542,304,
24787,8719,-5381,13048,-8925,-1436,854,1,-32,1546,298,
24807,8393,-5562,13141,-9161,-2731,329,1,-21,1549,301,
24828,8238,-5764,13310,-8856,-3362,-291,1,-17,1535,299,
24848,7813,-5858,13301,-7907,-2972,-864,1,-24,1534,304,
24869,7592,-5926,13100,-6654,-1813,-1153,1,-30,1540,298,
24889,7593,-5914,12791,-5346,-145,-1222,1,-25,1543,297,
24909,7392,-5809,12881,-4044,2015,-1094,1,-15,1547,299,
24930,7294,-5629,13040,-2833,3717,-754,1,-25,1541,303,
24950,7301,-5371,13202,-1934,4607,-360,1,-28,1542,306,
24971,7300,-5097,13448,-1387,4765,39,1,-18,1542,308,
24991,7298,-4531,13630,-1311,4238,182,1,-17,1557,303,
25011,7444,-4190,13715,-1806,2900,-1,1,-19,1549,301,
25032,7519,-4273,13984,-2969,992,-139,1,-20,1552,286,
25052,7330,-4510,14227,-4316,-748,-44,1,-17,1549,303,
25072,6622,-4823,14633,-5705,-1752,329,1,-11,1547,297,
25093,6017,-5118,15116,-6390,-2021,695,1,-11,1551,299,
25113,5917,-5608,15469,-6471,-1428,912,1,-2,1540,296,
25134,5970,-5717,15737,-6129,-174,787,1,-9,1547,293,
25154,5844,-5679,15693,-5621,1432,254,1,-6,1544,296,
25174,5486,-5593,15741,-5244,3015,-376,1,-10,1554,298,
25194,5206,-5411,15740,-5044,4299,-921,1,-7,1547,283,
25215,5114,-5280,15490,-5282,5120,-1394,1,-2,1544,290,
25235,5032,-5115,15211,-5917,5207,-1803,1,-2,1556,296,
25255,4911,-4905,14873,-6721,4706,-2405,1,-3,1553,291,
25276,4763,-4716,14680,-7376,3864,-3106,1,4,1556,288,
25296,4292,-4488,14649,-7762,2774,-3665,1,5,1561,291,
25316,3639,-4336,14830,-7780,1835,-3822,1,5,1559,285,
25337,2938,-4317,14789,-7728,1894,-3604,1,7,1559,289,
25357,2735,-4234,14811,-7639,2667,-3330,1,0,1564,282,
25378,2592,-4108,14873,-7227,3069,-3187,1,15,1569,295,
25398,2066,-3869,14958,-6541,3053,-3004,1,-2,1560,284,
25418,1742,-3653,15015,-5968,3079,-2922,1,11,1569,285,
25439,1580,-3491,15180,-5586,3092,-2950,1,8,1564,282,
25459,1288,-3273,15237,-5450,3017,-2939,1,14,1564,280,
25480,972,-3028,15250,-5585,2900,-2819,1,12,1570,278,
25500,741,-2773,15367,-5686,2599,-2638,1,16,1570,278,
25520,534,-2628,15388,-5665,2141,-2391,1,19,1573,279,
25540,174,-2468,15542,-5591,1654,-2004,1,21,1571,281,
25561,-168,-2407,15658,-5477,1356,-1509,1,29,1577,267,
25581,-415,-2457,15656,-5413,1418,-979,1,20,1568,268,
25602,-517,-2435,15577,-5435,1452,-775,1,13,1573,269,
25622,-803,-2437,15497,-5402,1082,-899,1,22,1568,272,
25642,-1080,-2524,15464,-5285,580,-1050,1,30,1572,262,
25663,-1401,-2620,15514,-5156,363,-1062,1,27,1575,271,
25683,-1676,-2676,15493,-5064,499,-982,1,30,1580,266,
25703,-1901,-2670,15492,-4911,552,-975,1,33,1575,269,
25724,-1854,-2531,15952,-5014,588,-1013,1,27,1565,263,
25744,-1923,-2424,16230,-5502,756,-1057,1,20,1576,258,
25764,-2087,-2231,16272,-6194,792,-1053,1,30,1574,260,
25785,-2516,-1989,15913,-6445,620,-967,1,23,1575,255,
25805,-2992,-1718,15404,-5744,1205,-251,1,32,1582,260,
25825,-3356,-2174,15271,-4840,2627,159,1,28,1576,262,
25846,-3686,-2395,15302,-4030,3845,-47,1,31,1583,257,
25866,-3941,-2059,15177,-3273,4578,-310,1,36,1578,254,
25887,-4094,-1913,15167,-2720,4990,-509,1,31,1581,251,
25907,-4302,-1874,15191,-2144,5061,-647,1,32,1588,242,
25928,-4475,-1766,15198,-1547,4684,-580,1,24,1582,254,
25948,-4402,-1439,15283,-1012,4179,-491,1,30,1574,248,
25968,-4320,-1118,15422,-630,3688,-328,1,37,1579,259,
25988,-4330,-863,15592,-259,2899,-48,1,34,1582,252,
26009,-4244,-671,15723,73,1943,157,1,21,1577,255,
26029,-4125,-567,15840,296,1254,198,1,27,1587,251,
26049,-3974,-438,15800,500,780,78,1,32,1586,254,
26070,-3915,-263,15807,575,546,-51,1,31,1591,257,
26090,-3939,-200,16002,693,518,-86,1,28,1582,252,
26111,-3923,-266,16097,830,807,-128,1,30,1582,254,
26131,-3991,-220,16183,953,1120,-227,1,28,1584,250,
26151,-4050,-213,16187,1126,1438,-303,1,22,1580,264,
26172,-4013,-188,16104,1256,1796,-302,1,28,1582,256,
26192,-3957,-66,16049,1274,1820,-284,1,29,1583,253,
26212,-3895,-20,16061,1143,1472,-187,1,23,1583,251,
26233,-3775,-3,16031,948,1236,-94,1,26,1580,256,
26253,-3676,-16,16038,833,1227,-15,1,28,1588,250,
26273,-3616,-15,15962,806,1270,93,1,37,1585,249,
26294,-3508,61,15907,744,1290,196,1,26,1580,254,
26314,-3406,234,15902,671,1207,193,1,23,1589,253,
26335,-3385,279,15901,599,1060,185,1,22,1586,244,
26355,-3392,222,15838,579,1027,198,1,29,1593,245,
26375,-3355,201,15845,614,1237,200,1,35,1581,259,
26396,-3343,371,15838,620,1469,188,1,27,1587,255,
26416,-3359,468,15758,542,1348,198,1,25,1587,257,
26436,-3358,568,15639,355,980,236,1,28,1590,256,
26457,-3317,676,15659,196,574,232,1,28,1582,256,
26477,-3295,634,15727,73,181,250,1,30,1586,260,
26498,-3309,561,15688,-51,15,289,1,30,1584,258,
26518,-3301,525,15720,-109,-30,326,1,21,1587,255,
26538,-3256,552,15734,-141,-132,348,1,29,1587,263,
26559,-3233,553,15789,-174,-339,367,1,34,1588,252,
26579,-3209,484,15866,-219,-521,391,1,34,1586,252,
26599,-3217,438,15907,-287,-529,418,1,33,1585,257,
26620,-3221,438,15920,-353,-496,427,1,27,1585,249,
26640,-3208,498,15933,-380,-557,393,1,34,1578,262,
26660,-3259,496,15950,-443,-731,377,1,30,1592,256,
26681,-3333,437,15965,-493,-954,355,1,21,1591,257,
26701,-3372,289,16011,-482,-1059,299,1,31,1589,255,
26722,-3408,232,16028,-522,-1055,246,1,25,1585,251,
26742,-3442,105,15966,-450,-1128,147,1,37,1589,257,
26762,-3457,37,15772,-135,-1031,69,1,28,1588,252,
26783,-3415,-125,15758,141,-766,-73,1,25,1577,247,
26803,-3361,-160,15828,340,-633,-265,1,29,1585,249,
26823,-3332,-49,15864,450,-707,-350,1,26,1580,262,
26844,-3238,47,15891,529,-888,-196,1,33,1589,257,
26864,-3070,123,15742,688,-952,15,1,30,1586,260,
26884,-2920,205,15567,1000,-937,137,1,34,1582,244,
26905,-2888,200,15359,1276,-979,293,1,25,1585,257,
26925,-2811,113,15420,1360,-1083,520,1,32,1582,254,
26946,-2658,-11,15541,1371,-1214,658,1,24,1584,250,
26966,-2576,-163,15699,1352,-1338,623,1,26,1582,252,
26986,-2533,-268,15819,1253,-1420,508,1,25,1577,261,
27007,-2630,-390,15970,1026,-1541,432,1,25,1583,259,
27027,-2708,-509,16154,780,-1677,438,1,29,1585,255,
27048,-2715,-601,16250,529,-1780,344,1,28,1586,250,
27068,-2777,-669,16320,225,-1893,104,1,30,1584,254,
27088,-2952,-763,16390,-89,-2040,-84,1,25,1581,257,
27108,-3093,-870,16430,-351,-2102,-194,1,25,1581,257,
27129,-3212,-1010,16457,-487,-1922,-330,1,29,1585,255,
27149,-3324,-1148,16437,-487,-1582,-493,1,17,1583,259,
27170,-3409,-1278,16401,-451,-1247,-660,1,27,1579,253,
27190,-3418,-1331,16340,-415,-1095,-927,1,26,1588,260,
27210,-3439,-1360,16272,-393,-1079,-1261,1,33,1583,255,
27231,-3475,-1367,16239,-388,-1123,-1538,1,21,1587,255,
27251,-3436,-1410,16250,-355,-1124,-1697,1,26,1576,264,
27272,-3333,-1430,16202,-331,-952,-1838,1,24,1586,254,
27292,-3273,-1400,16185,-231,-805,-2025,1,31,1587,263,
27312,-3198,-1350,16064,-15,-681,-2248,1,26,1584,258,
27333,-3168,-1287,15964,208,-567,-2393,1,31,1585,257,
27353,-2814,-1055,15971,417,-529,-2373,1,25,1583,253,
27373,-1878,-170,16451,-2,-875,-1949,1,28,1582,256,
27394,-1942,-117,16136,-433,-1496,-1336,1,27,1583,253,
27414,-2219,-365,15950,-629,-1982,-692,1,26,1574,248,
27434,-2622,-811,15863,-858,-2438,-110,1,31,1575,255,
27455,-2938,-1265,15746,-1112,-2830,166,1,31,1573,257,
27475,-3221,-1641,15624,-1190,-3030,194,1,29,1579,257,
27496,-3354,-1834,15505,-1012,-2881,88,1,30,1574,258,
27516,-3438,-1888,15557,-811,-2768,40,1,26,1574,260,
27536,-3312,-2040,15538,-671,-2896,94,1,26,1576,252,
27557,-3223,-2221,15592,-531,-2530,150,1,29,1573,257,
27577,-3368,-2588,15703,-107,-1600,144,1,23,1571,253,
27597,-3506,-2837,15807,351,-390,155,1,27,1571,253,
27618,-3360,-2831,15802,653,806,58,1,27,1575,253,
27638,-3265,-2496,15876,995,1312,-42,1,35,1573,261,
27658,-3204,-2165,15880,1448,948,-113,1,18,1570,260,
27679,-3234,-2025,15982,1774,272,-267,1,31,1563,259,
27699,-3329,-1979,16084,1991,-82,-405,1,24,1570,252,
27719,-3193,-1994,16231,2055,-270,-466,1,31,1571,259,
27740,-2921,-2040,16131,2060,-574,-424,1,30,1570,264,
27760,-2782,-2121,15827,2015,-783,-294,1,29,1565,255,
27780,-2506,-2349,15803,1978,-758,-117,1,35,1569,257,
27801,-2177,-2310,16210,2077,-905,12,1,31,1565,259,
27821,-2159,-2287,16191,2272,-1230,-68,1,27,1569,261,
27842,-2132,-2377,15955,2340,-1502,-264,1,28,1570,260,
27862,-2038,-1975,15817,2312,-1596,-625,1,22,1572,266,
27883,-2047,-1864,15946,2285,-2144,-1093,1,26,1562,264,
27903,-1935,-2143,15992,2220,-3729,-1313,1,27,1569,263,
27923,-1642,-2514,15890,2172,-5596,-1301,1,23,1567,265,
27944,-1401,-2923,16037,2183,-7088,-1182,1,21,1559,265,
27964,-1345,-3414,15887,2329,-7691,-1237,1,16,1568,272,
27984,-1279,-4074,15374,2429,-7771,-1162,1,25,1563,263,
28005,-1274,-4653,14947,2309,-7543,-909,1,16,1564,270,
28025,-1085,-4857,15187,2259,-6435,-719,1,22,1552,274,
28045,-992,-5206,15034,1957,-4517,-744,1,24,1560,260,
28066,-847,-5418,15022,1419,-2192,-754,1,17,1559,273,
28086,-952,-5281,15170,922,549,-796,1,24,1556,268,
28107,-1079,-4830,15288,294,2434,-856,1,19,1565,263,
28127,-1350,-4396,15258,-465,2795,-910,1,14,1562,264,
28147,-1382,-4114,15151,-1140,2083,-912,1,14,1566,258,
28168,-1409,-3685,14999,-1745,1182,-1129,1,23,1563,269,
28188,-1368,-3798,14726,-2369,711,-1523,1,23,1565,263,
28208,-1817,-4100,14963,-2787,803,-1836,1,23,1569,263,
28229,-2236,-3876,15314,-2999,961,-1988,1,15,1567,263,
28249,-2682,-3428,15310,-3369,1028,-2330,1,27,1563,263,
28269,-3345,-3472,14781,-4110,1405,-2858,1,20,1568,264,
28290,-3090,-4274,14597,-5142,1838,-2738,1,26,1568,252,
28310,-2871,-4744,15330,-5404,1934,-2127,1,31,1575,263,
28330,-2591,-4863,16079,-4742,1627,-1217,1,18,1566,256,
28351,-2864,-4731,16209,-3737,721,-339,1,25,1565,263,
28371,-3245,-4445,15836,-2900,-438,357,1,26,1566,254,
28391,-3174,-3987,15600,-2437,-1031,666,1,23,1571,257,
28412,-3191,-3673,15634,-1990,-1296,727,1,32,1572,260,
28432,-3387,-3593,15927,-1293,-1810,690,1,24,1570,258,
28453,-3583,-3935,16059,-685,-2764,753,1,34,1564,258,
28473,-3669,-4390,15811,-220,-3871,1065,1,24,1564,266,
28493,-3628,-4411,15515,-101,-4439,1277,1,25,1559,263,
28514,-3550,-4225,15640,-86,-3762,1119,1,30,1564,262,
28534,-3574,-4353,15762,29,-2588,775,1,23,1563,271,
28554,-3603,-4680,15509,-6,-1922,567,1,21,1563,259,
28575,-3495,-4836,15089,-337,-2042,549,1,25,1563,259,
28595,-3372,-4707,14932,-720,-2380,544,1,30,1558,256,
28615,-3406,-4736,14995,-879,-2674,515,1,27,1563,255,
28636,-3470,-5040,15077,-813,-2962,458,1,30,1560,260,
28656,-3554,-5401,15142,-653,-3149,531,1,20,1562,260,
28677,-3575,-5449,15047,-381,-3063,650,1,26,1558,268,
28697,-3555,-5257,14990,-232,-2904,471,1,27,1563,261,
28718,-3578,-5665,14846,-165,-2967,379,1,36,1558,262,
28738,-3670,-5780,14842,-46,-3322,564,1,27,1547,259,
28758,-3633,-5771,14773,38,-3609,676,1,21,1555,263,
28778,-3656,-6084,14975,336,-3474,827,1,32,1556,272,
28799,-3683,-6310,15019,719,-3341,1169,1,35,1553,267,
28819,-3482,-6399,14757,937,-3832,1424,1,24,1546,268,
28839,-3240,-6515,14591,910,-4045,1373,1,33,1549,267,
28860,-3110,-6796,14459,830,-3234,1192,1,27,1555,261,
28880,-2977,-6958,14336,664,-1983,980,1,29,1557,261,
28900,-2856,-7077,14462,580,-1185,811,1,30,1544,260,
28921,-2779,-7186,14589,527,-845,713,1,33,1541,271,
28941,-2728,-7115,14472,415,-975,652,1,27,1547,271,
28962,-2726,-7068,14336,185,-1332,455,1,26,1550,260,
28982,-2858,-7208,14362,-50,-1577,217,1,25,1545,265,
29002,-2990,-7466,14293,-276,-1416,79,1,26,1552,258,
29023,-3067,-7753,14350,-411,-996,135,1,35,1547,265,
29043,-3102,-7834,14454,-407,-825,386,1,33,1551,267,
29064,-3173,-7530,14286,-415,-1317,584,1,23,1547,269,
29084,-3127,-7211,14124,-475,-2072,596,1,30,1546,260,
29104,-3185,-7237,14179,-431,-2768,498,1,30,1550,272,
29114,-3277,-7349,14210,-321,-3137,524,1,23,1551,269,
29135,-3383,-7536,14073,-47,-4079,717,1,22,1546,256,
29155,-3567,-7570,13988,277,-5055,975,1,25,1545,257,
29175,-3433,-7815,13689,531,-5839,1222,1,26,1538,260,
29196,-3282,-8074,13272,587,-6246,1401,1,31,1541,267,
29216,-3112,-8361,12921,401,-6227,1433,1,24,1538,268,
29237,-3072,-8606,12941,145,-5530,1341,1,22,1534,270,
29257,-2933,-8918,13027,15,-4521,1266,1,26,1530,270,
29277,-2772,-9064,13158,75,-4294,1307,1,29,1531,261,
29298,-2693,-9145,13274,345,-5350,1431,1,30,1530,266,
29318,-2681,-9331,13217,584,-6927,1513,1,25,1529,265,
29338,-2805,-9855,12871,786,-8148,1633,1,25,1529,265,
29359,-2780,-10454,12485,800,-8427,1875,1,23,1529,273,
29379,-2644,-10751,12305,708,-7714,2025,1,22,1522,262,
29400,-2609,-11037,12010,660,-6922,2226,1,21,1521,263,
29420,-2431,-11055,11847,555,-7015,2343,1,21,1525,273,
29440,-2334,-11177,11901,421,-7744,2233,1,29,1517,265,
29461,-2207,-11553,11744,265,-8213,2262,1,24,1520,262,
29481,-2045,-11963,11352,177,-8159,2400,1,31,1521,267,
29502,-1851,-12004,11096,53,-7611,2466,1,22,1512,264,
29522,-1690,-12076,10734,70,-6923,2454,1,21,1513,267,
29542,-1577,-12206,10572,213,-6786,2379,1,23,1511,263,
29563,-1571,-12358,10588,326,-7048,2282,1,24,1510,260,
29583,-1446,-12527,10448,392,-7221,2144,1,23,1505,267,
29603,-1351,-12690,9995,443,-7167,2050,1,15,1515,265,
29624,-1248,-12944,9671,575,-6897,1948,1,26,1506,260,
29644,-1023,-12950,9319,607,-6399,1720,1,26,1508,262,
29664,-896,-12886,8962,542,-6126,1319,1,21,1497,265,
29685,-890,-12971,8689,360,-6378,849,1,14,1500,260,
29705,-794,-13229,8581,162,-6775,229,1,22,1494,260,
29725,-872,-13665,8268,177,-6944,-190,1,25,1505,261,
29746,-1061,-14054,7985,259,-6797,-363,1,22,1492,256,
29766,-1155,-14207,7456,257,-6348,-377,1,29,1497,261,
29786,-1074,-14205,7160,247,-5948,-467,1,20,1488,260,
29807,-1236,-14662,7252,457,-5583,-442,1,23,1491,259,
29827,-1548,-15299,7290,725,-5065,129,1,19,1485,255,
29847,-1548,-15289,6859,772,-4590,812,1,28,1498,252,
29868,-1370,-14836,6429,630,-4416,1129,1,19,1489,257,
29888,-1169,-14664,6129,477,-4613,1197,1,16,1498,260,
29909,-1151,-15015,6345,508,-5090,1170,1,21,1487,255,
29929,-1155,-15572,6544,823,-5476,1180,1,19,1485,257,
29949,-1128,-15815,6086,891,-5638,1225,1,24,1482,252,
29970,-958,-15941,5581,701,-5535,923,1,20,1484,264,
29990,-820,-15946,5242,404,-4989,608,1,17,1479,251,
30010,-839,-15889,5033,97,-3915,291,1,25,1477,253,
30031,-974,-16043,5233,5,-2311,51,1,21,1489,249,
30051,-930,-16153,5406,-66,-812,-12,1,17,1481,251,
30072,-858,-15986,5428,-151,-52,61,1,22,1484,260,
30092,-724,-15811,5475,-252,159,77,1,15,1485,257,
30112,-758,-16025,5446,-297,316,184,1,25,1485,257,
30133,-815,-16478,5174,-245,1230,453,1,22,1488,248,
30153,-716,-16493,5185,-433,2739,429,1,25,1489,257,
30173,-625,-16242,5407,-911,4261,-53,1,27,1479,255,
30194,-587,-16065,5517,-1359,5347,-548,1,26,1498,256,
30214,-796,-15874,5719,-1612,6378,-982,1,22,1492,260,
30234,-964,-15822,5907,-1848,7622,-1220,1,20,1498,256,
30255,-1199,-15346,6305,-1995,8752,-1339,1,15,1491,261,
30275,-1362,-14798,6749,-1969,9144,-1421,1,22,1498,250,
30295,-1542,-14301,7048,-1622,8175,-1255,1,19,1495,259,
30316,-1594,-13843,7353,-1030,6194,-1026,1,27,1497,263,
30336,-1712,-13673,7569,-440,3841,-838,1,29,1491,265,
30357,-1702,-13654,7574,-15,1513,-692,1,17,1499,261,
30377,-1600,-13711,7443,230,8,-669,1,18,1496,266,
30397,-1554,-13862,7335,349,-459,-701,1,27,1491,263,
30418,-1683,-14088,7498,261,-417,-745,1,28,1494,268,
30438,-1744,-14165,7665,89,-720,-722,1,26,1504,262,
30458,-1703,-14104,7654,-21,-1490,-670,1,19,1497,263,
30479,-1700,-14152,7646,-101,-2399,-631,1,20,1494,262,
30499,-1688,-14367,7619,-126,-3059,-624,1,25,1495,259,
30520,-1621,-14583,7499,-58,-3372,-585,1,25,1485,261,
30540,-1602,-14713,7339,163,-3350,-479,1,23,1491,263,
30560,-1671,-14814,7348,224,-3206,-437,1,27,1499,253,
30581,-1639,-14856,7253,296,-3103,-402,1,23,1503,265,
30601,-1620,-14808,7171,338,-3080,-395,1,27,1493,247,
30621,-1689,-14809,7084,431,-3154,-370,1,28,1498,266,
30642,-1732,-14825,6838,590,-3372,-253,1,26,1490,260,
30662,-1765,-14827,6674,682,-3815,-149,1,21,1495,259,
30683,-1820,-14862,6536,686,-4425,-92,1,26,1498,256,
30703,-1815,-14984,6302,629,-4886,-97,1,24,1486,252,
30723,-1785,-15161,5952,534,-4828,-154,1,16,1488,246,
30744,-1840,-15345,5682,340,-4236,-246,1,24,1496,252,
30764,-1906,-15526,5499,162,-3417,-231,1,24,1484,252,
30784,-1903,-15663,5424,111,-2521,-63,1,29,1491,259,
30805,-1834,-15607,5243,86,-1608,12,1,21,1493,257,
30825,-1830,-15592,5254,-4,-775,-97,1,23,1485,255,
30845,-1838,-15596,5220,-129,-224,-280,1,26,1488,246,
30866,-1827,-15582,5287,-187,-182,-463,1,20,1486,254,
30886,-1805,-15573,5316,-136,-533,-594,1,28,1486,258,
30906,-1795,-15557,5244,-64,-992,-748,1,21,1483,255,
30927,-1858,-15609,5293,-45,-1346,-921,1,22,1496,246,
30947,-1918,-15701,5256,-62,-1507,-1094,1,28,1482,246,
30968,-2019,-15760,5121,-125,-1480,-1232,1,20,1490,254,
30988,-2121,-15802,5023,-176,-1295,-1306,1,18,1492,256,
31008,-2167,-15824,4919,-217,-889,-1368,1,28,1496,246,
31029,-2165,-15863,4802,-198,-206,-1446,1,29,1491,243,
31049,-2238,-15766,4695,-199,819,-1563,1,20,1490,256,
31069,-2402,-15484,4745,-239,1972,-1702,1,35,1491,253,
31090,-2565,-15266,4968,-261,2725,-1762,1,22,1486,258,
31110,-2678,-15140,5163,-194,3046,-1703,1,34,1486,250,
31130,-2789,-15090,5334,-69,3070,-1588,1,21,1507,257,
31151,-2854,-15121,5462,62,2903,-1480,1,22,1488,260,
31171,-2847,-15203,5651,154,2696,-1409,1,13,1491,259,
31192,-2883,-15197,5728,191,2498,-1335,1,22,1500,256,
31212,-2916,-15070,5907,226,2355,-1318,1,24,1488,264,
31232,-2982,-15030,6065,239,2112,-1331,1,29,1497,265,
31253,-3022,-15071,6264,293,1696,-1280,1,22,1498,252,
31273,-3013,-15048,6294,353,1268,-1285,1,25,1495,257,
31294,-2987,-14970,6354,369,932,-1440,1,32,1498,258,
31314,-3040,-14907,6361,307,671,-1688,1,29,1491,255,
31334,-3106,-14882,6414,309,537,-1863,1,30,1506,254,
31355,-3222,-14848,6434,377,450,-1896,1,28,1500,258,
31375,-3367,-14730,6536,488,317,-1803,1,29,1505,267,
31395,-3503,-14636,6553,580,17,-1610,1,27,1499,257,
31416,-3560,-14574,6495,640,-397,-1345,1,29,1499,257,
31436,-3584,-14562,6481,654,-760,-1097,1,21,1501,249,
31456,-3663,-14657,6509,529,-1097,-967,1,31,1507,263,
31477,-3689,-14769,6324,365,-1404,-871,1,28,1498,264,
31497,-3664,-14769,6191,394,-1606,-714,1,23,1495,261,
31517,-3710,-14795,6173,463,-1707,-466,1,28,1494,256,
31538,-3776,-14878,6155,454,-1801,-213,1,23,1509,261,
31558,-3729,-14993,6205,397,-2037,16,1,28,1500,262,
31578,-3648,-14967,6213,334,-2401,165,1,23,1497,267,
31599,-3675,-15031,6000,235,-2886,200,1,23,1499,257,
31619,-3627,-15169,5736,123,-3328,172,1,24,1502,264,
31639,-3566,-15286,5572,-4,-3556,118,1,26,1502,264,
31660,-3543,-15330,5626,-3,-3851,108,1,22,1498,262,
31680,-3550,-15271,5370,82,-4603,234,1,27,1489,247,
31701,-3487,-15166,4886,110,-5457,370,1,22,1496,252,
31721,-3470,-15063,4550,132,-5971,447,1,27,1493,255,
31741,-3410,-14959,4233,147,-6245,548,1,22,1490,254,
31762,-3395,-14828,3984,87,-6276,626,1,27,1487,253,
31782,-3372,-14977,3855,-9,-5903,622,1,25,1487,253,
31802,-3369,-15260,3762,-47,-5403,727,1,21,1487,249,
31823,-3313,-15527,3536,-171,-4879,895,1,22,1480,244,
31843,-3190,-15744,3282,-271,-3930,983,1,18,1488,252,
31864,-3161,-15988,3025,-425,-2526,1018,1,23,1481,253,
31884,-3162,-16135,3001,-496,-901,1064,1,26,1486,256,
31904,-3153,-16318,2995,-555,435,1124,1,21,1485,247,
31925,-3080,-16503,2946,-570,1316,1158,1,28,1480,254,
31945,-3092,-16741,3060,-466,1833,1116,1,20,1496,246,
31965,-3045,-16647,3049,-397,1793,1120,1,12,1484,246,
31986,-2872,-16368,3099,-190,1420,903,1,25,1487,263,
32006,-2910,-16230,3103,23,946,737,1,22,1488,254,
32026,-2934,-16149,3108,117,658,564,1,20,1484,248,
32047,-2938,-16176,3141,117,725,219,1,20,1490,256,
32067,-2943,-16236,3215,77,937,-121,1,25,1485,249,
32087,-2927,-16233,3272,67,1110,-394,1,20,1490,250,
32108,-2991,-16258,3338,161,1036,-653,1,20,1490,258,
32128,-3051,-16257,3435,164,888,-879,1,19,1487,251,
32149,-3095,-16208,3417,93,919,-1196,1,27,1483,249,
32169,-3132,-16091,3352,8,1130,-1472,1,18,1504,252,
32189,-3193,-15893,3449,30,1289,-1762,1,18,1492,254,
32210,-3204,-15795,3546,145,1154,-2058,1,18,1488,252,
32230,-3379,-15652,3639,211,646,-2435,1,13,1493,263,
32250,-3591,-15535,3674,218,66,-2765,1,27,1499,249,
32271,-3660,-15439,3725,237,-449,-3087,1,22,1504,256,
32291,-3845,-15377,3828,274,-832,-3404,1,22,1496,260,
32312,-4056,-15267,3879,282,-1160,-3598,1,25,1495,257,
32332,-4184,-15195,3770,209,-1383,-3737,1,31,1489,253,
32352,-4324,-15123,3768,150,-1316,-3822,1,20,1500,248,
32373,-4447,-15139,3778,147,-1027,-3765,1,28,1496,256,
32393,-4611,-15138,3856,176,-757,-3607,1,26,1490,254,
32413,-4810,-15114,3821,203,-677,-3454,1,33,1499,255,
32434,-5014,-15121,3722,234,-722,-3318,1,30,1490,262,
32454,-5224,-15163,3710,227,-782,-3202,1,21,1499,247,
32474,-5473,-15251,3775,145,-846,-2999,1,28,1498,266,
32495,-5647,-15243,3877,47,-898,-2619,1,29,1499,255,
32515,-5762,-15155,3818,-53,-1033,-2105,1,24,1494,254,
32535,-5759,-15126,3626,-73,-1045,-1648,1,27,1501,259,
32556,-5844,-15214,3612,-89,-761,-1235,1,26,1506,260,
32576,-5872,-15194,3755,-126,-464,-755,1,21,1495,259,
32597,-5837,-15149,3732,-147,-362,-225,1,23,1501,257,
32617,-5788,-15080,3622,-59,-290,272,1,26,1498,252,
32637,-5773,-15090,3468,50,-146,679,1,27,1499,255,
32658,-5765,-15186,3355,89,-36,928,1,22,1506,252,
32678,-5718,-15275,3303,100,-92,1004,1,26,1498,260,
32699,-5643,-15353,3347,108,-329,1010,1,28,1494,254,
32719,-5618,-15395,3241,66,-486,1004,1,30,1492,250,
32739,-5561,-15384,3136,-39,-432,982,1,25,1491,261,
32760,-5470,-15423,3136,-175,-249,976,1,28,1496,262,
32780,-5409,-15337,3249,-265,-184,1037,1,31,1497,255,
32800,-5366,-15322,3300,-272,-320,1114,1,26,1496,250,
32821,-5288,-15212,3325,-203,-780,1234,1,23,1489,253,
32841,-5234,-15060,3318,-97,-1605,1290,1,31,1497,251,
32862,-5226,-15044,3181,-24,-2739,1278,1,34,1494,254,
32882,-5217,-15144,2908,6,-3965,1275,1,24,1492,254,
32902,-5169,-15305,2780,43,-4750,1304,1,25,1495,255,
32923,-5170,-15485,2499,5,-5169,1252,1,33,1491,253,
32943,-5133,-15539,2205,-57,-5726,1072,1,32,1486,254,
32963,-5146,-15624,1996,-26,-6693,897,1,24,1490,250,
32984,-5169,-15656,1740,-51,-8150,794,1,32,1484,244,
33004,-5089,-15607,1465,-128,-10156,760,1,24,1482,234,
33024,-4976,-15830,926,-15,-12634,807,1,23,1483,243,
33045,-4765,-16108,318,224,-14829,977,1,32,1480,242,
33065,-4781,-15989,-467,109,-16022,860,1,28,1480,236,
33085,-4679,-15559,-1298,-236,-16191,415,1,29,1475,243,
33106,-4556,-15335,-1872,-322,-15969,41,1,27,1475,239,
33126,-4342,-15179,-2259,-125,-15562,-136,1,31,1465,231,
33146,-4205,-14965,-2557,53,-15334,-341,1,32,1476,232,
33167,-4174,-14763,-3096,259,-15391,-256,1,26,1474,218,
33187,-3911,-14699,-3787,509,-15881,-34,1,27,1469,217,
33207,-4147,-14733,-4646,769,-16405,251,1,31,1463,211,
33228,-4320,-14822,-5520,934,-16510,548,1,34,1472,216,
33248,-4660,-14900,-6324,931,-16062,621,1,27,1475,211,
33269,-5004,-14800,-7137,623,-15135,622,1,28,1470,204,
33289,-5112,-14370,-7799,196,-13773,387,1,25,1469,207,
33309,-4997,-14143,-8463,-195,-12340,-22,1,20,1466,206,
33330,-4931,-13997,-8943,-507,-11202,-221,1,25,1459,211,
33350,-4956,-13663,-9235,-731,-10280,-313,1,27,1459,203,
33371,-4940,-13361,-9444,-954,-9591,-338,1,26,1462,196,
33391,-4828,-13124,-9712,-1201,-9175,-255,1,26,1466,188,
33411,-4720,-12861,-10151,-1389,-8764,-62,1,23,1461,195,
33432,-4624,-12649,-10298,-1423,-8241,196,1,30,1462,188,
33452,-4719,-12460,-10483,-1443,-7614,500,1,28,1456,194,
33473,-4775,-12190,-10584,-1552,-6844,691,1,26,1460,188,
33493,-4574,-11801,-10745,-1640,-6289,654,1,25,1461,185,
33513,-4307,-11642,-11103,-1585,-6037,676,1,30,1456,190,
33533,-4152,-11574,-11561,-1434,-5911,999,1,28,1462,174,
33554,-4208,-11361,-11792,-1299,-5770,1270,1,26,1454,184,
33574,-4152,-11109,-11863,-1258,-5675,1360,1,28,1468,178,
33595,-4122,-10926,-11972,-1361,-5743,1413,1,26,1458,184,
33615,-4035,-10838,-12035,-1465,-5923,1371,1,23,1459,179,
33635,-3952,-10650,-12195,-1452,-6192,1227,1,29,1463,177,
33655,-3851,-10185,-12594,-1292,-6992,1141,1,28,1460,174,
33676,-3692,-9717,-12721,-1213,-8679,1491,1,25,1465,177,
33696,-3662,-9615,-13096,-1185,-10575,1712,1,39,1461,177,
33717,-3872,-9494,-13524,-1213,-12017,1546,1,35,1459,159,
33737,-4085,-9362,-14146,-1133,-12668,1122,1,29,1463,161,
33757,-4105,-8925,-14759,-834,-12598,756,1,26,1456,162,
33778,-3926,-8242,-15007,-555,-12122,581,1,24,1460,164,
33798,-3847,-7663,-14945,-548,-11670,590,1,28,1460,156,
33819,-3904,-7227,-14889,-651,-11295,706,1,25,1467,147,
33839,-3914,-6842,-15105,-587,-10745,761,1,24,1468,150,
33859,-3762,-6527,-15357,-379,-9837,639,1,29,1459,147,
33880,-3551,-6199,-15406,-143,-8936,515,1,33,1465,151,
33900,-3491,-5847,-15551,88,-8292,548,1,24,1468,142,
33920,-3532,-5542,-15776,252,-7895,509,1,26,1466,138,
33941,-3576,-5353,-15909,471,-7655,344,1,24,1466,142,
33961,-3681,-5111,-16206,550,-7661,50,1,23,1461,147,
33981,-3667,-4718,-16332,227,-8213,64,1,28,1472,146,
34002,-3588,-3925,-16231,-368,-9202,691,1,25,1473,141,
34022,-3634,-3373,-16176,-674,-10017,1380,1,26,1472,132,
34043,-3735,-3266,-16357,-615,-9966,1642,1,30,1466,132,
34063,-3607,-3106,-16508,-514,-8824,1749,1,26,1476,126,
34083,-3508,-2866,-16534,-570,-6954,1621,1,38,1470,134,
34104,-3510,-2619,-16508,-738,-4987,1381,1,24,1474,128,
34124,-3527,-2431,-16424,-1091,-3702,1255,1,26,1470,130,
34145,-3532,-2335,-16482,-1286,-3426,1193,1,27,1469,133,
34165,-3419,-2182,-16710,-961,-3597,1066,1,25,1475,133,
34185,-3261,-2013,-16891,-516,-3919,958,1,32,1480,134,
34206,-3187,-1757,-16688,-320,-4847,859,1,22,1472,130,
34226,-3240,-1582,-16522,153,-6389,536,1,29,1481,127,
34246,-3280,-1271,-16539,1004,-7576,158,1,24,1484,120,
34266,-3447,-823,-16755,1732,-7980,-152,1,25,1481,127,
34287,-3612,-576,-16869,2347,-7496,-452,1,27,1491,125,
34307,-3861,-282,-16860,2747,-6236,-602,1,24,1488,124,
34328,-3975,-7,-16768,2758,-4694,-647,1,40,1482,128,
34348,-3815,205,-16786,2844,-3303,-729,1,33,1483,127,
34368,-3774,348,-16804,3083,-2206,-729,1,27,1481,125,
34389,-3933,358,-16844,3242,-1262,-610,1,37,1479,129,
34409,-3942,331,-16979,3235,-270,-431,1,38,1484,126,
34429,-3959,404,-17065,3123,643,-213,1,26,1494,122,
34450,-4026,501,-16899,2965,1063,37,1,28,1488,136,
34470,-4044,389,-16573,2934,740,153,1,38,1480,128,
34490,-4191,180,-16335,3021,-794,5,1,41,1487,131,
34511,-4503,409,-16094,3143,-3576,94,1,36,1490,122,
34531,-4771,945,-15796,3649,-7151,311,1,30,1494,126,
34552,-5081,1176,-15567,4635,-10409,508,1,41,1497,125,
34572,-5413,1460,-15435,5536,-12423,839,1,33,1493,121,
34593,-5697,2255,-15191,6034,-13390,842,1,39,1493,129,
34613,-5983,3154,-14961,6205,-13382,528,1,39,1489,127,
34633,-6162,3794,-14794,6195,-12750,303,1,38,1498,126,
34654,-6323,4398,-14745,6293,-12017,113,1,45,1507,123,
34674,-6597,4746,-14538,6622,-11622,-240,1,39,1507,133,
34694,-6995,4605,-14570,6662,-11419,-553,1,48,1506,132,
34715,-7267,4438,-14550,6297,-11327,-676,1,50,1510,134,
34735,-6937,4884,-14172,6050,-11343,-923,1,57,1511,133,
34755,-6890,5455,-13667,5632,-11460,-1005,1,47,1507,131,
34776,-7254,6168,-13033,4893,-10906,-724,1,49,1509,131,
34796,-7587,7119,-12694,4260,-9350,-493,1,56,1512,128,
34816,-8020,7501,-12573,3677,-7323,-115,1,53,1511,125,
34837,-8265,7661,-12708,3152,-5341,747,1,54,1514,130,
34857,-8218,7764,-12845,2683,-3435,1731,1,46,1514,134,
34877,-8117,7426,-12767,2362,-1931,2349,1,54,1508,130,
34898,-8108,7057,-12638,1976,-901,2508,1,57,1513,139,
34918,-8396,6881,-12450,1399,-485,2204,1,55,1517,131,
34939,-8721,7141,-12246,941,-764,1690,1,52,1516,136,
34959,-9059,7625,-12170,749,-1632,1282,1,49,1513,139,
34979,-9381,7826,-12163,895,-2592,1150,1,55,1521,135,
35000,-9726,7846,-12327,1484,-3283,998,1,56,1512,136,
35020,-9922,7652,-12159,1920,-3540,659,1,53,1511,131,
35040,-9917,7603,-11958,2336,-3401,303,1,54,1518,134,
35061,-9754,7735,-11823,2684,-3238,140,1,53,1511,143,
35081,-9818,7879,-11603,2795,-3342,147,1,59,1513,135,
35102,-10022,7964,-11606,2865,-3743,134,1,54,1516,136,
35122,-10177,8132,-11687,2994,-4160,83,1,49,1523,135,
35142,-9754,8425,-11602,3253,-4367,287,1,48,1514,142,
35163,-8844,8515,-11421,3409,-4054,748,1,60,1512,138,
35183,-8439,8462,-11373,3321,-3574,1338,1,58,1518,132,
35203,-8592,8399,-10914,2502,-3316,1568,1,53,1511,151,
35224,-8833,8609,-10420,1089,-3514,1583,1,47,1513,137,
35244,-9080,8454,-10031,-141,-4096,1364,1,52,1514,142,
35265,-9333,8699,-9564,-1072,-4758,1151,1,67,1513,137,
35285,-9635,9224,-9161,-1557,-5619,820,1,57,1511,123,
35305,-9903,9648,-9087,-1548,-6709,685,1,52,1514,130,
35326,-10234,10185,-8939,-1024,-7768,628,1,57,1517,135,
35346,-10628,10323,-8999,-235,-8426,1200,1,62,1520,132,
35366,-10678,10525,-9042,504,-9057,2030,1,58,1520,136,
35387,-10824,10483,-9099,1200,-9393,2925,1,56,1526,140,
35407,-10908,10278,-9001,1821,-9796,3668,1,55,1525,137,
35428,-11041,10152,-8833,2131,-10080,4388,1,60,1528,136,
35448,-11121,10278,-8679,2324,-9957,5030,1,55,1517,131,
35468,-11326,10376,-8333,2686,-9752,5489,1,57,1515,129,
35489,-11444,10360,-7925,2981,-9826,5872,1,60,1522,138,
35509,-11587,10397,-7418,3046,-10160,6289,1,63,1527,131,
35529,-11635,10220,-6905,2954,-10507,6601,1,57,1515,137,
35550,-11641,10089,-6443,2877,-10657,6760,1,62,1520,138,
35570,-11729,9856,-6128,2963,-10551,6850,1,55,1517,131,
35591,-11920,9568,-5992,3048,-10198,6848,1,66,1512,140,
35611,-12034,9519,-5675,3007,-9694,6748,1,55,1519,137,
35631,-12208,9661,-5294,2919,-9085,6622,1,51,1515,143,
35651,-12414,9693,-5025,2867,-8332,6274,1,65,1509,137,
35672,-12681,9612,-4750,2813,-7449,5950,1,57,1519,133,
35692,-12798,9491,-4423,2553,-6539,5627,1,66,1510,148,
35713,-12895,9323,-4033,2225,-5726,5387,1,63,1509,143,
35733,-13136,9172,-3873,2028,-4991,5003,1,56,1514,142,
35754,-13303,8951,-3631,1976,-4475,4567,1,59,1507,133,
35774,-13362,8718,-3338,1857,-4236,3977,1,56,1508,144,
35794,-13464,8455,-3070,1693,-4474,3225,1,65,1509,143,
35814,-13542,8394,-2814,1583,-4930,2560,1,63,1509,147,
35835,-13638,8222,-2659,1732,-5277,1795,1,58,1506,144,
35855,-13789,8188,-2406,2136,-5495,909,1,70,1514,150,
35876,-14153,8275,-2083,2543,-5659,155,1,65,1515,151,
35896,-14404,8387,-1908,2922,-6065,-441,1,67,1513,143,
35916,-14363,8679,-1498,3164,-6702,-908,1,65,1515,135,
35937,-14322,8859,-1105,3414,-7052,-1352,1,73,1517,151,
35957,-14338,8877,-893,3640,-7097,-1758,1,57,1517,147,
35977,-14213,8929,-752,3678,-7007,-2012,1,66,1516,144,
35998,-14078,8952,-687,3698,-6779,-2297,1,64,1518,152,
36018,-13831,8960,-705,3634,-6511,-2641,1,54,1514,140,
36039,-13560,9228,-543,3413,-6031,-3222,1,65,1517,147,
36059,-13377,9446,-100,3062,-5339,-3825,1,65,1521,149,
36079,-13033,9567,301,2670,-4929,-4369,1,62,1524,152,
36099,-12609,9478,715,2198,-4855,-4737,1,74,1530,154,
36120,-12309,9366,933,1697,-4853,-4813,1,66,1530,158,
36140,-12030,9649,977,1167,-4854,-4766,1,70,1532,152,
36161,-11846,9938,1124,641,-4703,-4791,1,64,1538,146,
36181,-11790,10269,1229,172,-4541,-4851,1,66,1536,152,
36202,-11891,10501,1282,-312,-4637,-4907,1,76,1542,146,
36222,-12086,10627,1481,-713,-4800,-4909,1,63,1537,157,
36242,-12312,10714,1608,-1006,-4952,-4798,1,53,1543,149,
36262,-12598,10923,2198,-834,-5053,-4718,1,60,1540,156,
36283,-12850,11269,2810,-202,-5242,-4793,1,64,1546,154,
36303,-12873,11717,3244,860,-5605,-5119,1,70,1548,156,
36324,-12693,12143,3636,2061,-6158,-5706,1,61,1547,157,
36344,-12404,12388,3817,3094,-6696,-6344,1,62,1556,150,
36364,-12072,12513,4007,3907,-6982,-6909,1,68,1552,164,
36385,-11656,12581,4167,4399,-7002,-7307,1,64,1554,160,
36405,-11266,12487,4270,4742,-6715,-7607,1,67,1559,159,
36425,-10715,12605,4451,4979,-6409,-7817,1,58,1558,172,
36446,-10246,12801,4605,5135,-6259,-8259,1,64,1564,168,
36466,-9802,12640,4367,5011,-6227,-8647,1,57,1569,171,
36487,-9404,12573,4297,4664,-5972,-8968,1,67,1571,161,
36507,-8964,12616,4484,4061,-5534,-9248,1,63,1571,171,
36527,-8582,12727,4821,3485,-5207,-9509,1,61,1569,171,
36548,-8084,12707,5000,2961,-5102,-9746,1,63,1585,177,
36568,-7574,12626,5523,2554,-5077,-9872,1,57,1583,175,
36588,-7109,12606,6225,2256,-4866,-9916,1,50,1584,182,
36609,-6674,12698,6671,2193,-4545,-9962,1,49,1579,173,
36629,-6216,12733,7156,2302,-4416,-9919,1,51,1589,185,
36650,-5638,12844,7545,2457,-4364,-9835,1,52,1582,190,
36670,-5135,12953,7945,2694,-4219,-9735,1,47,1595,187,
36690,-4685,12969,7925,2806,-3933,-9621,1,48,1590,184,
36711,-4249,12958,7942,2860,-3533,-9526,1,42,1594,184,
36731,-3932,12930,8093,2930,-3269,-9432,1,40,1596,190,
36751,-3655,12840,8282,3116,-3321,-9276,1,42,1598,194,
36772,-3414,12703,8392,3327,-3502,-8997,1,35,1607,197,
36792,-3001,12613,8473,3473,-3565,-8652,1,43,1605,201,
36812,-2564,12660,8723,3459,-3490,-8372,1,37,1605,195,
36833,-2204,12754,8885,3390,-3273,-8292,1,28,1606,200,
36853,-2058,12848,8930,3423,-3228,-8296,1,27,1611,203,
36873,-1874,12857,9239,3562,-3638,-8230,1,27,1607,199,
36894,-1641,13038,10010,3876,-3806,-8320,1,35,1611,209,
36914,-1372,13162,10522,4372,-3974,-8514,1,23,1615,199,
36934,-878,13132,10483,4947,-4369,-8595,1,15,1619,203,
36955,-176,12956,10233,5307,-4678,-8515,1,25,1617,211,
36975,428,12743,9951,5262,-4666,-8325,1,15,1619,211,
36996,913,12482,9740,4967,-4435,-8072,1,11,1613,213,
37016,1292,12240,9786,4675,-4389,-7654,1,13,1625,217,
37036,1618,12059,10025,4464,-4452,-7157,1,9,1623,213,
37046,1817,12006,10049,4370,-4498,-6908,1,11,1615,215,
37067,2302,11921,10192,4221,-4530,-6531,1,6,1616,218,
37087,2752,11882,10340,4090,-4543,-6255,1,7,1631,225,
37107,3220,11811,10762,4153,-4661,-6038,1,5,1627,229,
37128,3579,11667,10991,4208,-4815,-5886,1,-2,1626,220,
37148,4003,11385,11179,4235,-4817,-5793,1,-1,1621,223,
37169,4326,11020,11180,4233,-4686,-5674,1,5,1625,229,
37189,4483,10727,10983,4260,-4757,-5436,1,-1,1629,229,
37209,4706,10612,10809,4225,-5098,-5118,1,4,1624,228,
37230,5007,10471,10766,4015,-5446,-4869,1,-2,1626,232,
37250,5301,10166,10726,3669,-5555,-4735,1,-7,1623,231,
37270,5500,9834,10654,3286,-5669,-4621,1,-14,1618,244,
37291,5618,9576,10619,2843,-5861,-4478,1,-11,1625,241,
37311,5699,9374,10797,2429,-6107,-4352,1,-8,1616,240,
37332,5856,9034,11115,2155,-6663,-4216,1,-14,1622,250,
37352,6034,8558,11575,1948,-7666,-3932,1,-15,1621,253,
37372,6280,8078,12029,1699,-8072,-3549,1,-21,1619,241,
37393,6539,7710,12371,1400,-7707,-3066,1,-21,1625,257,
37413,6727,7470,12671,1040,-7299,-2507,1,-17,1625,257,
37433,6876,7302,12729,716,-7220,-2030,1,-16,1612,250,
37454,6924,7070,12672,486,-7558,-1592,1,-15,1611,255,
37474,6919,6800,12712,284,-8379,-1220,1,-14,1622,264,
37494,6918,6538,12990,-9,-9051,-974,1,-17,1607,263,
37515,6861,6256,13331,-284,-8510,-859,1,-27,1621,275,
37535,6726,6155,13535,-532,-7060,-821,1,-21,1611,263,
37556,6605,6055,13490,-738,-6428,-747,1,-14,1608,262,
37576,6486,5773,13253,-886,-7126,-593,1,-24,1612,260,
37596,6484,5340,13221,-1127,-8383,-395,1,-20,1610,268,
37617,6447,4859,13371,-1406,-8913,-262,1,-15,1605,277,
37637,6398,4318,13661,-1622,-8665,-128,1,-15,1603,271,
37658,6439,3832,14130,-1828,-7983,100,1,-14,1602,270,
37678,6400,3530,14290,-2213,-7423,404,1,-14,1600,270,
37698,6265,3286,14210,-2697,-7283,703,1,-28,1612,280,
37718,6054,3057,13895,-3234,-7735,1052,1,-19,1597,271,
37739,5881,2735,13781,-3665,-8572,1301,1,-17,1591,277,
37759,5792,2296,13953,-3955,-9504,1417,1,-13,1599,279,
37779,5740,1746,14314,-4288,-10129,1457,1,-8,1584,286,
37800,5744,1108,14567,-4615,-9995,1566,1,-9,1583,279,
37820,5743,534,14730,-5088,-9288,1876,1,-10,1588,284,
37841,5592,254,14970,-5489,-8305,2189,1,-1,1587,283,
37861,5315,149,15332,-5678,-7174,2386,1,-12,1584,282,
37881,5064,149,15591,-5775,-6139,2517,1,-9,1573,279,
37902,4839,347,15737,-5779,-5481,2865,1,-3,1577,283,
37922,4577,456,16129,-5692,-5491,2894,1,-4,1582,280,
37942,4354,370,16215,-5502,-5791,2519,1,-1,1579,283,
37963,4151,-29,16053,-5291,-6213,2284,1,-5,1569,291,
37983,3839,-391,15981,-5006,-6423,2200,1,-2,1578,278,
38003,3485,-825,15992,-4519,-6201,2113,1,11,1573,283,
38024,3191,-1130,15901,-4090,-5583,2059,1,7,1571,291,
38044,2963,-1378,15802,-3801,-4470,1984,1,-2,1564,282,
38064,2776,-1595,15878,-3604,-2878,1773,1,9,1571,289,
38085,2451,-1754,16134,-3321,-914,1461,1,5,1563,287,
38105,2193,-1811,16250,-2926,728,1230,1,3,1573,277,
38126,2059,-1768,16328,-2459,1698,1285,1,9,1571,277,
38146,1976,-1566,16377,-1958,1916,1395,1,0,1574,278,
38167,1913,-1295,16321,-1510,1542,1463,1,14,1564,276,
38187,1951,-1112,16254,-1139,758,1458,1,5,1571,279,
38207,2218,-1094,16241,-907,-420,1517,1,2,1572,282,
38228,2381,-1014,16243,-832,-1914,1571,1,0,1570,274,
38248,2284,-803,16300,-848,-3311,1424,1,2,1570,286,
38268,2010,-599,16542,-766,-4223,1062,1,1,1565,289,
38288,1745,-622,16337,-823,-4494,587,1,11,1561,289,
38309,1477,-832,15954,-1168,-4170,111,1,5,1567,275,
38329,1311,-1447,15426,-1779,-3214,-230,1,1,1565,289,
38350,1252,-2466,15072,-2405,-2285,-203,1,8,1570,284,
38370,1228,-3024,15142,-2875,-1534,175,1,11,1563,287,
38391,1273,-2703,15266,-3079,-995,433,1,6,1564,284,
38411,1177,-2383,15424,-3117,-688,529,1,15,1571,277,
38431,902,-2187,15632,-2924,-622,302,1,3,1565,279,
38452,794,-2108,15936,-2454,-841,-153,1,18,1568,272,
38472,717,-2016,16000,-1781,-1096,-435,1,7,1567,279,
38492,847,-2048,16052,-1169,-1251,-527,1,18,1566,276,
38513,1054,-2099,16012,-749,-1137,-655,1,13,1555,277,
38533,1205,-2046,15996,-623,-757,-801,1,8,1568,286,
38553,1194,-2140,15772,-761,-209,-903,1,10,1570,286,
38573,1116,-2370,15985,-885,324,-813,1,13,1567,279,
38594,1076,-2596,16296,-867,647,-603,1,17,1567,283,
38614,1043,-2447,16319,-777,596,-390,1,15,1569,281,
38635,1033,-2436,16145,-701,362,-222,1,17,1559,281,
38655,1109,-2636,16092,-565,137,-66,1,8,1566,280,
38675,1228,-2713,16175,-365,-86,122,1,12,1564,282,
38696,1225,-2578,16199,-175,-351,280,1,10,1572,278,
38716,1183,-2410,16279,12,-498,354,1,10,1556,278,
38737,1183,-2343,16289,170,-198,348,1,12,1564,280,
38757,1147,-2226,16227,227,454,331,1,12,1568,280,
38777,1069,-2078,16163,183,988,284,1,10,1558,280,
38798,1010,-1972,16105,79,1226,241,1,10,1566,276,
38818,991,-1951,16088,7,1238,227,1,21,1567,277,
38838,929,-1897,16054,-57,1061,225,1,16,1564,280,
38859,847,-1841,15998,-97,712,232,1,17,1559,277,
38879,750,-1838,15952,-111,413,228,1,14,1560,288,
38899,675,-1964,16016,-88,210,251,1,21,1567,279,
38920,634,-2092,16106,-22,151,305,1,12,1566,282,
38940,654,-2146,16149,55,170,366,1,10,1566,276,
38961,709,-2114,16061,88,204,387,1,16,1566,284,
38981,754,-2131,16043,121,254,384,1,19,1571,273,
39001,798,-2118,16068,153,364,357,1,20,1560,282,
39022,856,-2101,16055,172,452,316,1,10,1570,276,
39042,906,-2068,16044,161,403,290,1,9,1561,283,
39062,941,-2073,16061,174,283,283,1,21,1561,283,
39083,948,-2054,16031,198,177,279,1,13,1577,275,
39103,947,-2021,15994,208,166,297,1,13,1561,277,
39123,974,-1996,15955,228,204,329,1,19,1569,277,
39144,994,-1961,15943,266,190,343,1,9,1563,283,
39164,1051,-1965,15918,296,127,361,1,14,1562,276,
39185,1155,-2020,15886,241,71,379,1,12,1566,276,
39205,1214,-2042,15866,141,95,408,1,14,1562,276,
39225,1214,-1974,15911,78,196,404,1,14,1570,284,
39246,1197,-1891,15978,61,192,353,1,19,1563,281,
39266,1206,-1903,16091,98,78,282,1,19,1561,287,
39286,1219,-1946,16146,166,-79,231,1,7,1567,279,
39307,1186,-1956,16153,207,-205,192,1,14,1568,280,
39327,1140,-1952,16196,236,-261,173,1,15,1565,277,
39347,1111,-1919,16149,200,-242,187,1,18,1562,286,
39368,1111,-1918,16119,160,-168,216,1,8,1560,276,
39388,1124,-1913,16016,109,-90,241,1,9,1567,281,
39408,1132,-1880,15926,28,-36,235,1,18,1564,282,
39429,1155,-1860,15882,-60,-9,213,1,19,1563,277,
39449,1154,-1872,15921,-104,-7,175,1,8,1562,280,
39470,1140,-1918,15992,-112,-70,139,1,16,1560,280,
39490,1115,-2000,16029,-98,-115,135,1,14,1568,286,
39510,1112,-2039,16022,-96,-115,135,1,10,1558,276,
39531,1129,-2058,15963,-146,-92,129,1,6,1560,280,
39551,1161,-2082,15961,-192,-47,116,1,11,1567,277,
39571,1169,-2151,15984,-214,3,130,1,14,1562,282,
39592,1145,-2186,15958,-231,12,166,1,6,1556,280,
39612,1128,-2153,15969,-217,20,201,1,13,1563,277,
39632,1144,-2087,15968,-192,90,223,1,15,1557,287,
39653,1154,-2043,15962,-170,177,229,1,16,1570,282,
39673,1131,-1976,15925,-165,237,211,1,16,1564,286,
39693,1122,-1954,15968,-126,265,181,1,17,1561,279,
39714,1125,-1933,15978,-80,247,134,1,10,1562,276,
39734,1130,-1917,16009,-49,207,89,1,19,1561,277,
39755,1111,-1921,16036,5,191,61,1,12,1566,280,
39775,1114,-1927,16020,52,155,35,1,15,1567,285,
39795,1110,-1941,16023,71,95,6,1,15,1571,285,
39816,1111,-1940,16047,69,34,-18,1,14,1570,278,
39836,1100,-1922,16043,53,-4,-41,1,13,1561,281,
39856,1097,-1916,15973,30,-13,-59,1,16,1564,278,
39877,1075,-1899,15958,30,-12,-62,1,13,1565,273,
39897,1068,-1900,15939,35,-49,-76,1,11,1565,287,
39917,1098,-1929,15973,57,-121,-75,1,6,1564,280,
39938,1123,-1931,16002,62,-217,-71,1,11,1561,281,
39958,1166,-1909,16047,63,-261,-64,1,12,1562,280,
39979,1185,-1931,16112,81,-224,-55,1,10,1562,284,
39999,1191,-1954,16101,97,-150,-46,1,16,1566,276,
40019,1206,-1961,16073,94,-65,-24,1,19,1559,279,
40040,1241,-1951,16099,112,40,3,1,14,1562,276,
40060,1277,-1927,16070,107,124,36,1,14,1566,278,
40080,1310,-1891,16052,79,153,66,1,19,1567,285,
40101,1326,-1853,16036,18,161,86,1,19,1567,273,
40121,1331,-1812,16019,-45,235,95,1,11,1567,277,
40141,1291,-1815,15986,-105,433,82,1,13,1563,277,
40162,1264,-1809,15958,-150,635,57,1,8,1564,286,
40182,1229,-1800,15983,-164,700,64,1,18,1558,268,
40202,1216,-1785,16040,-160,562,95,1,15,1571,275,
40223,1217,-1788,16099,-127,356,127,1,14,1564,282,
40243,1227,-1789,16122,-76,215,164,1,14,1566,280,
40264,1253,-1778,16148,-20,191,196,1,16,1560,276,
40284,1286,-1756,16143,31,243,206,1,12,1564,286,
40304,1328,-1729,16136,68,302,210,1,12,1568,274,
40325,1370,-1668,16076,53,302,192,1,12,1572,276,
40345,1362,-1642,16056,-9,229,172,1,10,1558,270,
40365,1315,-1659,16026,-107,124,162,1,13,1565,277,
40386,1276,-1695,16023,-188,60,173,1,18,1568,274,
40406,1213,-1700,15999,-257,69,196,1,25,1565,273,
40426,1163,-1696,15968,-316,85,215,1,21,1569,283,
40447,1119,-1715,15953,-368,98,227,1,15,1563,281,
40467,1096,-1721,15961,-372,78,235,1,14,1566,278,
40487,1077,-1699,15939,-356,10,230,1,8,1564,284,
40508,1071,-1705,15994,-303,-43,210,1,18,1566,286,
40528,1072,-1710,15949,-251,-75,186,1,17,1567,277,
40548,1074,-1708,15938,-236,-89,146,1,10,1564,286,
40569,1083,-1709,15985,-184,-59,99,1,17,1567,281,
40589,1097,-1714,16020,-138,-4,68,1,13,1571,279,
40610,1127,-1742,16049,-91,55,41,1,11,1561,285,
40630,1141,-1733,16059,-35,84,22,1,16,1570,272,
40650,1140,-1709,15999,4,57,12,1,13,1573,275,
40671,1133,-1723,15953,38,-9,4,1,7,1567,283,
40691,1147,-1740,15930,80,-61,-3,1,17,1563,279,
40711,1180,-1708,15952,111,-90,-9,1,11,1569,275,
40732,1202,-1685,15953,101,-136,-9,1,15,1565,275,
40752,1213,-1696,16001,75,-169,-10,1,11,1565,281,
40772,1208,-1726,16090,72,-174,-5,1,16,1568,284,
40793,1206,-1753,16125,80,-146,14,1,19,1571,277,
40813,1216,-1749,16118,81,-107,38,1,5,1571,285,
40833,1224,-1733,16098,67,-98,56,1,16,1566,278,
40854,1237,-1712,16089,37,-102,66,1,8,1566,276,
40874,1244,-1687,16062,-18,-102,74,1,23,1565,279,
40894,1237,-1682,16070,-76,-82,76,1,10,1564,284,
40915,1199,-1675,16029,-100,-60,76,1,27,1567,287,
40935,1186,-1695,16030,-106,-38,77,1,10,1560,280,
40956,1211,-1701,16044,-90,-39,84,1,10,1568,286,
40976,1229,-1686,15998,-105,-87,79,1,12,1558,284,
40996,1233,-1703,16026,-130,-128,66,1,13,1567,279,
41017,1240,-1694,16055,-147,-147,46,1,15,1567,279,
41037,1244,-1666,16097,-138,-189,11,1,17,1567,271,
41057,1277,-1654,16141,-93,-332,-26,1,5,1567,283,
41078,1271,-1644,16144,-22,-632,-64,1,17,1567,281,
41098,1305,-1760,16155,79,-1002,-91,1,15,1573,281,
41119,1351,-1914,16159,177,-1220,-63,1,20,1570,286,
41139,1331,-1964,16111,224,-1174,-71,1,12,1566,284,
41159,1273,-1979,16002,224,-930,-89,1,8,1564,290,
41180,1225,-1998,15911,155,-575,-110,1,15,1563,281,
41200,1225,-2045,15836,8,-216,-119,1,14,1564,276,
41220,1238,-2111,15918,-222,168,-80,1,15,1567,285,
41240,1239,-2145,15974,-496,635,-22,1,7,1575,287,
41261,1213,-2085,16061,-676,1055,58,1,16,1560,290,
41281,1221,-1955,15992,-815,1278,123,1,8,1574,284,
41301,1192,-1824,15966,-887,1246,173,1,17,1565,281,
41322,1140,-1722,15983,-855,959,203,1,16,1568,284,
41342,1045,-1643,16037,-753,558,212,1,11,1561,281,
41363,959,-1635,16099,-647,173,222,1,13,1567,279,
41383,897,-1667,16151,-556,-38,235,1,14,1558,286,
41403,863,-1729,16158,-475,-100,247,1,11,1569,277,
41424,893,-1788,16166,-420,-84,222,1,16,1564,280,
41444,943,-1819,16185,-402,-30,211,1,12,1570,274,
41465,945,-1776,16172,-458,41,228,1,16,1562,272,
41485,928,-1757,16075,-522,65,247,1,16,1564,278,
41505,933,-1793,15963,-550,23,223,1,23,1561,273,
41525,950,-1783,15905,-552,-15,163,1,13,1561,279,
41546,932,-1741,15920,-544,3,72,1,17,1559,287,
41566,895,-1752,15949,-490,64,-22,1,11,1563,277,
41586,885,-1879,15984,-451,178,-28,1,14,1568,280,
41607,842,-1901,16008,-480,401,26,1,11,1563,277,
41627,768,-1820,15981,-533,771,95,1,19,1575,277,
41648,723,-1689,15864,-525,1170,163,1,25,1567,275,
41668,701,-1540,15724,-447,1459,200,1,22,1572,280,
41688,685,-1407,15641,-277,1504,184,1,14,1568,272,
41709,680,-1259,15592,-63,1348,138,1,16,1568,280,
41729,696,-1114,15604,143,1028,77,1,10,1566,282,
41749,705,-1064,15673,326,568,11,1,19,1573,277,
41770,754,-1141,15826,499,65,-27,1,16,1568,274,
41790,827,-1289,15964,637,-443,-32,1,15,1565,283,
41810,877,-1395,16096,734,-771,21,1,15,1569,285,
41831,865,-1458,16241,788,-847,121,1,12,1568,272,
41851,894,-1506,16310,818,-653,259,1,13,1565,277,
41872,990,-1556,16326,813,-315,414,1,16,1570,280,
41892,1061,-1566,16333,749,38,557,1,11,1565,279,
41912,1111,-1481,16291,657,284,682,1,13,1557,285,
41933,1178,-1328,16215,537,292,770,1,24,1560,276,
41953,1247,-1264,16137,392,79,822,1,11,1573,287,
41973,1269,-1288,16181,272,-234,861,1,3,1567,285,
41994,1216,-1377,16269,227,-427,891,1,17,1575,285,
42014,1207,-1461,16321,226,-500,882,1,14,1564,282,
42035,1273,-1487,16314,167,-561,841,1,11,1561,273,
42055,1288,-1477,16310,76,-596,814,1,19,1569,285,
42075,1256,-1487,16315,-15,-593,774,1,10,1582,280,
42096,1236,-1512,16302,-120,-521,718,1,7,1567,281,
42116,1200,-1535,16342,-248,-384,666,1,2,1568,286,
42136,1195,-1556,16347,-392,-179,613,1,19,1559,279,
42157,1197,-1564,16412,-533,27,542,1,10,1564,278,
42177,1176,-1556,16473,-639,230,481,1,18,1566,280,
42197,1133,-1549,16547,-726,385,446,1,10,1570,286,
42218,1102,-1547,16534,-807,420,439,1,20,1572,274,
42238,1052,-1544,16454,-845,370,440,1,11,1565,277,
42258,996,-1559,16324,-872,306,457,1,10,1568,282,
42279,931,-1549,16129,-920,260,471,1,14,1570,274,
42299,842,-1516,15942,-987,257,490,1,10,1562,280,
42319,752,-1485,15802,-1028,289,497,1,12,1566,278,
42340,682,-1446,15801,-1014,297,482,1,13,1567,281,
42360,687,-1418,15803,-963,220,453,1,9,1565,281,
42381,665,-1382,15802,-898,94,420,1,15,1571,277,
42401,608,-1402,15781,-782,-16,370,1,19,1569,279,
42421,634,-1438,15765,-614,-82,285,1,22,1570,274,
42442,651,-1454,15688,-460,-150,210,1,12,1560,274,
42462,651,-1453,15553,-344,-266,117,1,15,1573,277,
42482,623,-1491,15533,-227,-343,42,1,24,1574,272,
42503,637,-1579,15591,-102,-396,-2,1,9,1573,283,
42523,639,-1592,15638,43,-424,0,1,16,1566,282,
42544,638,-1633,15674,194,-455,30,1,15,1565,275,
42564,720,-1661,15724,341,-512,50,1,16,1564,276,
42584,821,-1682,15934,465,-611,70,1,13,1575,277,
42605,925,-1659,16078,466,-699,103,1,14,1560,272,
42625,992,-1650,16135,349,-711,168,1,15,1563,287,
42645,1004,-1638,16132,148,-610,230,1,19,1559,275,
42665,1013,-1642,16125,-64,-412,296,1,15,1571,285,
42686,1019,-1594,16127,-201,-316,346,1,13,1565,281,
42706,973,-1585,16248,-301,-398,378,1,15,1573,279,
42726,981,-1656,16339,-347,-488,367,1,15,1565,285,
42747,962,-1703,16422,-347,-483,326,1,12,1564,286,
42767,933,-1742,16477,-337,-369,271,1,17,1565,281,
42788,900,-1772,16498,-310,-237,235,1,20,1566,272,
42808,836,-1800,16493,-305,-155,240,1,15,1559,275,
42828,789,-1795,16422,-318,-78,255,1,22,1562,276,
42849,780,-1756,16317,-343,20,258,1,14,1566,276,
42869,744,-1693,16203,-341,112,248,1,23,1559,283,
42889,688,-1656,16115,-349,153,225,1,11,1567,275,
42910,617,-1668,16072,-336,136,215,1,15,1567,277,
42930,551,-1690,16046,-285,69,229,1,17,1565,275,
42950,548,-1694,16000,-225,-58,245,1,28,1564,280,
42971,558,-1716,15983,-170,-170,260,1,18,1560,278,
42991,560,-1747,16021,-100,-274,277,1,17,1561,283,
43012,605,-1787,16017,-20,-427,309,1,24,1566,276,
43032,679,-1771,15990,44,-677,384,1,11,1565,279,
43052,709,-1768,15957,53,-930,475,1,18,1564,288,
43073,671,-1856,15922,-20,-1058,587,1,9,1565,283,
43093,616,-1924,15879,-157,-1012,718,1,10,1560,280,
43113,562,-1996,15917,-348,-855,870,1,17,1567,273,
43133,544,-2035,15981,-546,-656,1014,1,16,1564,278,
43154,549,-2067,16069,-708,-449,1132,1,21,1559,279,
43174,540,-2059,16113,-832,-323,1205,1,11,1563,285,
43195,523,-2055,16154,-897,-241,1240,1,15,1561,279,
43215,507,-2010,16202,-871,-135,1207,1,12,1550,280,
43236,511,-1928,16208,-754,-19,1130,1,20,1564,274,
43256,499,-1895,16196,-548,61,997,1,20,1564,278,
43276,527,-1859,16138,-329,79,841,1,22,1564,282,
43296,555,-1827,16136,-153,31,679,1,19,1565,279,
43306,570,-1818,16131,-89,0,590,1,9,1557,279,
43327,581,-1847,16097,12,-7,436,1,23,1565,277,
43347,535,-1920,16035,77,12,325,1,12,1552,284,
43368,503,-1969,16005,98,40,287,1,14,1566,268,
43388,485,-2049,15982,86,44,296,1,11,1561,271,
43408,472,-2103,15994,43,9,371,1,23,1561,275,
43429,464,-2094,15969,-27,-45,510,1,14,1564,278,
43449,487,-2113,15920,-64,-74,667,1,24,1562,284,
43469,520,-2090,15897,-24,-14,821,1,21,1561,277,
43490,535,-2044,16027,176,45,921,1,17,1565,273,
43510,525,-2031,16134,528,-2,1000,1,17,1563,287,
43530,529,-2023,16122,897,-131,1077,1,11,1563,279,
43551,594,-2037,16164,1265,-216,1134,1,20,1556,274,
43571,682,-2023,16246,1566,-140,1171,1,17,1557,277,
43592,821,-1974,16267,1715,38,1188,1,17,1561,281,
43612,974,-1933,16215,1695,174,1162,1,13,1555,283,
43632,1150,-1936,16171,1552,299,1061,1,11,1563,283,
43653,1264,-1879,16084,1355,452,898,1,13,1555,277,
43673,1366,-1827,16072,1150,616,700,1,15,1561,271,
43693,1441,-1798,16124,951,761,494,1,13,1571,289,
43713,1447,-1785,16136,769,789,362,1,14,1562,282,
43734,1414,-1768,16058,595,705,279,1,21,1563,285,
43754,1404,-1735,15903,398,554,256,1,20,1556,280,
43775,1360,-1696,15818,174,405,245,1,17,1565,281,
43795,1315,-1690,15848,-16,339,248,1,11,1563,281,
43816,1291,-1686,15875,-241,322,253,1,15,1561,283,
43836,1217,-1705,15931,-488,335,266,1,8,1554,278,
43856,1163,-1771,16035,-617,343,283,1,8,1556,272,
43877,1126,-1788,16172,-578,304,322,1,17,1557,275,
43897,1124,-1790,16158,-468,239,373,1,15,1557,277,
43917,1108,-1788,16130,-334,218,407,1,22,1562,276,
43938,1084,-1778,16117,-201,250,437,1,19,1563,279,
43958,1112,-1730,16114,-109,275,451,1,18,1564,278,
43978,1161,-1649,16091,-34,297,426,1,16,1556,290,
43999,1202,-1589,16063,44,317,383,1,18,1558,278,
44019,1212,-1533,16065,141,374,350,1,17,1555,279,
44039,1234,-1480,16051,234,383,313,1,17,1553,275,
44060,1267,-1465,15997,312,327,260,1,21,1561,279,
44080,1239,-1454,15839,310,224,194,1,18,1564,278,
44101,1180,-1488,15728,236,122,155,1,13,1561,285,
44121,1113,-1742,15767,139,82,180,1,16,1558,274,
44141,1073,-1963,15918,98,-33,264,1,20,1568,278,
44162,1095,-2151,16004,125,-282,428,1,21,1555,281,
44182,1196,-2273,16060,69,-530,757,1,12,1556,276,
44202,1369,-2221,16069,-92,-448,1015,1,19,1559,273,
44223,1407,-1937,15866,-474,208,1122,1,13,1555,283,
44243,1258,-1764,15799,-1067,1014,1285,1,13,1555,273,
44263,1168,-1802,15816,-1648,1625,1456,1,21,1551,281,
44284,1236,-1697,16001,-1923,1804,1600,1,25,1561,279,
44304,1344,-1389,16312,-1879,1605,1644,1,20,1560,274,
44325,1400,-1072,16273,-1730,1214,1672,1,20,1568,276,
44345,1382,-785,16031,-1636,848,1633,1,21,1559,277,
44365,1242,-633,15843,-1710,673,1442,1,20,1558,276,
44386,945,-439,15965,-1799,643,1385,1,25,1557,269,
44406,732,-308,16116,-1915,480,1345,1,20,1552,274,
44426,548,-459,16437,-1847,66,1402,1,24,1562,270,
44447,485,-641,16678,-1552,-438,1514,1,13,1557,279,
44467,514,-789,16722,-1158,-888,1686,1,21,1557,269,
44487,578,-904,16604,-830,-1145,1871,1,22,1556,268,
44508,644,-995,16450,-642,-1123,2089,1,23,1549,273,
44528,679,-1069,16333,-654,-864,2330,1,25,1555,283,
44548,681,-1238,16235,-861,-495,2664,1,31,1553,279,
44569,696,-1425,16126,-1192,-187,3081,1,26,1544,272,
44589,617,-1473,16089,-1557,93,3561,1,20,1554,268,
44610,492,-1404,16065,-1912,387,4054,1,27,1553,277,
44630,337,-1316,16053,-2192,579,4455,1,33,1553,273,
44650,176,-1184,16075,-2372,694,4725,1,32,1554,266,
44670,103,-1177,16115,-2401,638,4905,1,25,1549,277,
44691,25,-1100,16117,-2303,429,4957,1,26,1548,270,
44711,-68,-986,16019,-2122,129,4883,1,28,1548,272,
44732,-290,-740,15909,-1855,-227,4583,1,31,1549,267,
44752,-485,-505,15836,-1658,-586,4101,1,42,1548,274,
44773,-500,-597,15917,-1442,-874,3528,1,37,1547,269,
44793,-397,-703,16107,-1127,-1023,2897,1,35,1547,269,
44813,-308,-818,16165,-779,-1006,2283,1,31,1539,267,
44833,-303,-1149,16123,-448,-850,1778,1,31,1551,277,
44854,-284,-1268,16132,-82,-593,1321,1,23,1543,265,
44874,-226,-1243,16190,262,-413,851,1,31,1545,275,
44895,-185,-1232,16209,560,-345,389,1,30,1540,280,
44915,-156,-1292,16129,793,-379,-55,1,33,1545,265,
44935,-191,-1354,15984,885,-448,-421,1,33,1549,267,
44956,-235,-1380,15873,837,-452,-723,1,30,1548,266,
44976,-301,-1409,15762,655,-251,-1009,1,25,1541,271,
44996,-349,-1405,15698,382,130,-1285,1,39,1541,277,
45017,-381,-1378,15700,59,706,-1602,1,37,1549,265,
45037,-350,-1324,15621,-359,1489,-1971,1,26,1548,272,
45058,-347,-1224,15522,-877,2396,-2340,1,40,1546,278,
45078,-468,-1153,15682,-1373,3540,-2583,1,40,1550,274,
45098,-633,-1154,15895,-1748,4403,-2660,1,34,1552,276,
45119,-766,-1131,16157,-2000,4674,-2594,1,32,1556,268,
45139,-780,-1078,16336,-2042,4390,-2411,1,36,1548,264,
45159,-801,-890,16480,-1835,3629,-2167,1,24,1560,268,
45180,-961,-618,16550,-1454,2622,-1925,1,36,1554,270,
45200,-1036,-352,16604,-946,1472,-1716,1,32,1558,268,
45220,-936,-154,16591,-469,593,-1629,1,28,1556,266,
45241,-860,10,16550,-111,71,-1657,1,30,1556,270,
45261,-926,126,16502,99,5,-1835,1,37,1555,271,
45281,-939,215,16337,235,233,-2165,1,26,1562,262,
45302,-801,257,16205,330,527,-2542,1,31,1557,267,
45322,-660,338,16238,432,973,-3079,1,26,1556,264,
45343,-538,393,16359,473,1592,-3703,1,27,1557,273,
45363,-473,447,16364,326,2060,-4278,1,30,1562,266,
45383,-404,489,16240,94,2306,-4824,1,27,1565,267,
45404,-453,604,16053,-95,2400,-5265,1,31,1565,263,
45424,-524,813,15899,-236,2366,-5439,1,28,1560,268,
45444,-550,981,15825,-430,2212,-5415,1,30,1570,268,
45465,-467,869,15848,-681,2032,-5507,1,21,1567,269,
45485,-280,492,15972,-1037,1993,-5878,1,27,1581,265,
45506,-521,470,16067,-1408,2340,-6222,1,26,1570,258,
45526,-726,747,15849,-1524,3012,-6157,1,29,1581,267,
45546,-887,1012,15705,-1211,3307,-5885,1,32,1576,262,
45566,-996,1182,15750,-1015,3330,-5322,1,28,1576,266,
45587,-1006,1276,15954,-942,3276,-4631,1,25,1577,257,
45607,-839,1463,16248,-982,3098,-4104,1,27,1583,253,
45628,-700,1797,16475,-1158,2658,-3867,1,20,1582,262,
45648,-619,2159,16615,-1375,1946,-3744,1,18,1582,260,
45669,-616,2337,16759,-1610,1031,-3689,1,25,1585,261,
45689,-670,2308,16946,-1797,-309,-3760,1,29,1579,259,
45709,-762,2095,16888,-1651,-1837,-3953,1,22,1574,260,
45729,-958,1942,16723,-1282,-3225,-4082,1,17,1583,263,
45750,-1145,1789,16576,-930,-4167,-4143,1,24,1586,266,
45770,-1306,1624,16474,-689,-4407,-4068,1,24,1582,260,
45791,-1500,1340,16387,-414,-4074,-3814,1,26,1588,262,
45811,-1453,1088,16071,-13,-3482,-3518,1,30,1580,264,
45831,-1349,939,15759,239,-2986,-3307,1,15,1585,267,
45852,-1188,821,15552,315,-2661,-3182,1,22,1586,262,
45872,-1025,797,15505,353,-2389,-3170,1,14,1588,268,
45893,-879,719,15548,477,-2009,-3304,1,8,1584,270,
45913,-825,655,15581,609,-1354,-3404,1,18,1586,264,
45933,-933,684,15611,590,-472,-3351,1,17,1587,265,
45954,-715,696,15680,348,91,-3063,1,14,1584,266,
45974,-828,835,15972,-199,122,-2543,1,19,1587,269,
45994,-835,893,16298,-793,-563,-1988,1,19,1591,263,
46014,-882,796,16671,-1067,-1935,-1669,1,11,1585,271,
46035,-1059,618,16899,-1248,-3591,-1800,1,11,1593,261,
46055,-996,446,16955,-1354,-5155,-1985,1,17,1587,271,
46076,-917,412,16677,-1292,-6027,-1744,1,22,1588,272,
46096,-879,309,16318,-1078,-6206,-1540,1,19,1579,271,
46116,-882,-97,15906,-670,-5467,-1649,1,19,1579,263,
46137,-760,-640,15632,-207,-3869,-1949,1,22,1588,270,
46157,-707,-1249,15464,-37,-1648,-2303,1,18,1584,270,
46177,-773,-1757,15483,-209,272,-2809,1,21,1589,271,
46198,-856,-1821,15585,-421,1569,-3279,1,14,1594,270,
46218,-1055,-1427,15701,-643,2315,-3343,1,12,1590,266,
46239,-1445,-832,15862,-1134,2897,-3069,1,12,1588,264,
46259,-1721,-385,16182,-1692,3189,-2648,1,11,1597,271,
46279,-1968,-328,16607,-2160,3245,-2304,1,14,1596,264,
46300,-2048,92,17003,-2323,3653,-2062,1,10,1596,262,
46320,-2046,669,17070,-2090,4436,-2094,1,15,1593,267,
46340,-1943,1080,16887,-1560,5024,-2354,1,18,1596,262,
46361,-1872,1428,16395,-997,5243,-2682,1,14,1602,266,
46381,-1813,1604,15848,-818,5354,-3057,1,14,1594,260,
46402,-1786,1803,15345,-932,5360,-3383,1,19,1601,255,
46422,-1820,2038,14987,-1246,4981,-3687,1,14,1598,260,
46442,-1877,2258,14957,-1727,4069,-3912,1,6,1606,260,
46463,-2050,2420,15094,-2164,2721,-4076,1,12,1608,258,
46483,-2165,2411,15199,-2432,1245,-4148,1,10,1612,256,
46503,-2258,2039,15325,-2392,333,-4072,1,11,1607,255,
46524,-2425,1406,15867,-1916,171,-3800,1,14,1608,256,
46544,-2543,900,16534,-1068,628,-3191,1,14,1610,258,
46564,-2560,979,16565,-451,926,-2464,1,11,1613,265,
46585,-2496,1327,15988,-379,171,-1726,1,16,1608,250,
46605,-2353,1612,15596,-553,-1414,-1156,1,7,1609,255,
46625,-2170,1800,15458,-594,-2459,-996,1,16,1608,254,
46646,-2114,1912,15546,-481,-2242,-1236,1,4,1604,250,
46666,-2138,1991,15569,-207,-1151,-1752,1,0,1610,252,
46686,-2274,2060,15574,-54,-188,-2211,1,5,1609,253,
46707,-2364,2169,15573,-290,289,-2452,1,6,1614,260,
46727,-2422,2287,15677,-732,386,-2576,1,11,1603,257,
46748,-2453,2376,15939,-999,390,-2686,1,9,1603,247,
46768,-2502,2485,16169,-928,433,-2957,1,20,1608,252,
46788,-2486,2547,16399,-566,385,-3315,1,2,1608,252,
46809,-2468,2565,16568,-137,8,-3695,1,2,1614,250,
46829,-2449,2552,16686,384,-865,-4018,1,0,1608,264,
46849,-2374,2471,16769,886,-1892,-4237,1,8,1610,252,
46870,-2198,2447,16898,1279,-2931,-4279,1,11,1611,261,
46890,-1996,2147,16952,1683,-3799,-4579,1,-6,1608,264,
46911,-1846,1944,17090,2249,-4215,-4884,1,-3,1611,261,
46931,-1563,1676,17144,2793,-4124,-5165,1,3,1611,267,
46951,-1277,1425,17150,3200,-3880,-5547,1,-2,1606,260,
46972,-1078,1190,16986,3449,-3648,-5997,1,-14,1612,274,
46992,-919,972,16907,3641,-3656,-6371,1,-15,1611,265,
47012,-743,738,16768,3771,-3848,-6735,1,-11,1613,265,
47032,-652,512,16660,3897,-4238,-7079,1,-7,1611,271,
47053,-576,335,16536,3982,-4680,-7390,1,-9,1603,267,
47073,-415,153,16427,4052,-5042,-7753,1,-17,1605,271,
47094,-223,-119,16296,4016,-5216,-8204,1,-28,1606,272,
47114,-131,-465,16142,3905,-5159,-8618,1,-22,1608,274,
47134,-87,-736,15929,3804,-4880,-8959,1,-21,1611,277,
47155,-6,-955,15715,3703,-4527,-9238,1,-27,1609,273,
47175,98,-1134,15494,3520,-4412,-9438,1,-33,1601,267,
47196,157,-1387,15261,3192,-4681,-9602,1,-32,1602,284,
47216,107,-1683,15017,2659,-5232,-9455,1,-25,1603,283,
47236,118,-1983,14796,2064,-5466,-9089,1,-35,1605,277,
47257,245,-2297,14663,1460,-5084,-8821,1,-44,1602,280,
47277,393,-2695,14623,759,-4075,-8745,1,-39,1595,283,
47297,378,-3001,14669,34,-2912,-8616,1,-37,1605,283,
47318,291,-3300,14760,-713,-1901,-8336,1,-49,1593,283,
47338,35,-3445,14896,-1415,-1515,-7747,1,-37,1607,279,
47358,-236,-3543,15044,-2004,-1503,-6873,1,-42,1598,278,
47379,-448,-3609,15252,-2327,-1437,-5787,1,-43,1599,279,
47399,-323,-3309,15586,-2089,-1046,-4769,1,-50,1598,286,
47420,-238,-3164,15855,-1610,-256,-4137,1,-53,1601,285,
47440,-36,-2896,16048,-1190,529,-3721,1,-42,1610,280,
47460,79,-2661,16186,-912,889,-3554,1,-50,1598,278,
47481,18,-2713,16044,-849,824,-3455,1,-46,1600,282,
47501,-48,-2895,15814,-975,763,-3307,1,-42,1602,282,
47521,55,-2926,15683,-1245,1229,-3322,1,-43,1605,289,
47542,171,-2829,15684,-1450,1942,-3648,1,-45,1601,279,
47562,5,-2579,15809,-1644,2280,-4076,1,-45,1605,283,
47582,-256,-2460,15845,-1995,2167,-4250,1,-52,1604,286,
47603,-615,-2495,15836,-2472,2047,-3984,1,-49,1605,279,
47623,-949,-2569,15885,-2818,2101,-3384,1,-43,1607,279,
47643,-1222,-2404,16222,-2853,2150,-2620,1,-50,1600,270,
47664,-1367,-2036,16564,-2577,1988,-2058,1,-41,1605,275,
47684,-1512,-1733,16689,-2041,1831,-1749,1,-42,1602,282,
47704,-1706,-1513,16600,-1592,1788,-1541,1,-49,1613,281,
47725,-2083,-1146,16755,-1466,1593,-1175,1,-50,1608,272,
47745,-2029,-728,16710,-1310,907,-792,1,-51,1601,275,
47766,-1737,-409,16807,-1040,33,-857,1,-44,1610,282,
47786,-1602,-696,16869,-724,-1343,-1212,1,-37,1605,271,
47806,-1648,-1486,16804,-250,-2874,-1514,1,-56,1604,280,
47827,-1643,-2510,16497,300,-3980,-1579,1,-52,1602,278,
47847,-1629,-3203,16069,734,-4261,-1358,1,-55,1597,279,
47867,-1401,-3496,15697,835,-4087,-1005,1,-51,1599,281,
47888,-1315,-3184,15565,534,-3719,-798,1,-48,1596,276,
47908,-1092,-2741,15752,168,-3248,-974,1,-52,1598,280,
47928,-963,-2249,15949,-87,-2314,-1571,1,-43,1591,279,
47949,-985,-1966,16129,-131,-931,-2309,1,-51,1603,283,
47969,-1182,-2085,16203,-84,527,-2943,1,-54,1610,278,
47990,-1433,-2775,16409,-112,1585,-3151,1,-52,1610,284,
48010,-1450,-3202,16474,-110,1921,-2857,1,-52,1612,284,
48030,-1276,-3062,16546,-29,2145,-2558,1,-45,1615,277,
48051,-1241,-2749,16410,-215,2073,-2271,1,-45,1613,283,
48071,-1373,-2293,16170,-565,1845,-2330,1,-49,1613,287,
48091,-1483,-2027,15996,-815,1784,-2533,1,-46,1618,284,
48112,-1583,-2130,15826,-983,1887,-2707,1,-52,1618,278,
48132,-1589,-2289,15593,-1102,2026,-2685,1,-54,1616,288,
48152,-1605,-2190,15309,-1352,2011,-2556,1,-57,1617,293,
48173,-1709,-1858,15195,-1749,1595,-2463,1,-53,1609,279,
48193,-1878,-1687,15239,-2128,994,-2474,1,-51,1617,287,
48213,-2054,-1761,15378,-2406,595,-2536,1,-53,1615,285,
48234,-2070,-1859,15524,-2504,550,-2558,1,-56,1614,290,
48254,-2064,-1803,15775,-2292,523,-2597,1,-52,1620,288,
48274,-2146,-1696,16060,-2006,232,-2659,1,-54,1622,282,
48295,-2553,-1573,16216,-1590,-345,-2800,1,-56,1622,292,
48315,-2796,-1483,16366,-1120,-812,-3002,1,-53,1619,287,
48336,-3024,-1522,16539,-537,-1125,-3130,1,-50,1616,284,
48356,-3196,-1642,16627,117,-1276,-3132,1,-53,1617,289,
48376,-3185,-1720,16552,689,-1173,-3085,1,-63,1615,285,
48397,-2997,-1767,16424,1221,-952,-3062,1,-65,1603,293,
48417,-2811,-1865,16257,1583,-868,-3112,1,-54,1612,290,
48438,-2577,-1978,16123,1798,-893,-3319,1,-62,1614,282,
48458,-2440,-1956,15984,1924,-984,-3717,1,-70,1614,288,
48478,-2402,-1916,15923,1951,-1119,-4090,1,-64,1610,284,
48499,-2377,-2029,15907,1883,-1284,-4366,1,-62,1614,280,
48519,-2429,-2056,15867,1848,-1334,-4496,1,-70,1618,286,
48539,-2573,-1960,15913,2005,-1335,-4518,1,-68,1608,284,
48560,-2687,-1923,16051,2310,-1511,-4562,1,-68,1602,284,
48580,-2705,-2119,16131,2626,-1686,-4804,1,-66,1608,284,
48600,-2715,-2250,16088,2891,-1601,-5342,1,-70,1606,286,
48621,-2668,-2188,16089,2951,-1337,-6012,1,-77,1611,287,
48641,-2532,-2170,16148,2793,-1114,-6790,1,-71,1597,285,
48661,-2334,-2344,16103,2597,-877,-7710,1,-79,1609,285,
48682,-2055,-2449,16055,2360,-695,-8636,1,-84,1602,286,
48702,-1826,-2266,16034,1874,-402,-9505,1,-91,1601,289,
48722,-1753,-1965,15975,1143,91,-9999,1,-87,1603,279,
48743,-1776,-1775,15969,333,679,-10073,1,-85,1599,277,
48763,-1651,-1827,15997,-359,1146,-9919,1,-88,1600,292,
48784,-1626,-1698,15994,-1058,1856,-9547,1,-84,1598,288,
48804,-1693,-1330,16035,-1832,2654,-8919,1,-97,1603,287,
48825,-1833,-1145,16234,-2508,3200,-8272,1,-93,1599,277,
48845,-1962,-999,16350,-2831,3630,-7805,1,-93,1603,277,
48865,-2109,-644,16336,-2850,4069,-7542,1,-100,1590,284,
48885,-2267,-202,16307,-2785,4267,-7367,1,-93,1601,275,
48906,-2455,161,16346,-2572,3853,-7303,1,-96,1596,286,
48926,-2620,284,16459,-2078,2915,-7369,1,-89,1595,281,
48947,-2811,371,16561,-1335,2053,-7536,1,-82,1608,276,
48967,-2981,445,16578,-433,1408,-7752,1,-90,1596,276,
48987,-3066,526,16466,373,898,-7992,1,-91,1591,277,
49008,-2881,495,16352,1015,253,-8396,1,-91,1599,279,
49028,-2715,472,16210,1407,-93,-8917,1,-95,1597,279,
49048,-2706,479,16103,1501,-172,-9255,1,-97,1597,277,
49069,-2662,487,15985,1329,-281,-9392,1,-103,1591,279,
49089,-2529,378,15871,1116,-533,-9574,1,-104,1586,282,
49110,-2379,294,15771,977,-622,-9834,1,-108,1594,280,
49130,-2344,251,15685,732,-533,-9959,1,-106,1586,276,
49150,-2338,188,15562,438,-374,-9949,1,-108,1584,274,
49170,-2312,133,15468,209,-273,-9875,1,-110,1582,278,
49191,-2229,151,15415,-14,-204,-9793,1,-109,1587,271,
49211,-2187,234,15371,-369,39,-9648,1,-108,1584,282,
49232,-2201,342,15298,-790,163,-9384,1,-112,1582,280,
49252,-2246,377,15275,-1178,-38,-9073,1,-109,1583,279,
49272,-2204,364,15344,-1315,-508,-8877,1,-118,1568,282,
49293,-2268,337,15454,-1146,-881,-8706,1,-113,1577,275,
49313,-2300,345,15578,-720,-1266,-8442,1,-113,1573,281,
49334,-2291,323,15692,-168,-1823,-8196,1,-117,1563,279,
49354,-2211,303,15771,483,-2420,-8077,1,-118,1572,278,
49374,-2192,236,15899,1162,-2962,-7992,1,-108,1554,280,
49394,-2152,142,16039,1782,-3341,-7807,1,-111,1559,273,
49415,-2070,24,16157,2219,-3469,-7640,1,-119,1563,283,
49435,-1910,-108,16174,2536,-3429,-7579,1,-116,1552,272,
49456,-1732,-263,16175,2651,-3229,-7584,1,-120,1548,278,
49476,-1551,-386,16196,2488,-2967,-7602,1,-122,1550,266,
49496,-1414,-528,16231,2118,-2646,-7652,1,-125,1551,279,
49517,-1402,-628,16265,1697,-2192,-7742,1,-122,1548,278,
49537,-1410,-746,16286,1270,-1626,-7924,1,-122,1546,270,
49557,-1404,-843,16339,910,-1112,-8261,1,-134,1548,282,
49578,-1392,-880,16400,681,-833,-8615,1,-120,1540,276,
49598,-1422,-1001,16420,532,-793,-8803,1,-117,1541,275,
49619,-1417,-1144,16375,552,-860,-8783,1,-121,1537,269,
49639,-1356,-1339,16290,757,-953,-8532,1,-127,1531,275,
49659,-1289,-1480,16211,994,-1191,-8037,1,-122,1536,278,
49679,-1316,-1444,16023,1168,-1435,-7395,1,-122,1542,268,
49700,-1421,-1408,16293,1077,-1273,-7025,1,-129,1535,269,
49720,-1425,-1149,16252,839,-992,-6888,1,-122,1528,268,
49740,-1530,-889,16302,479,-444,-6764,1,-121,1533,269,
49761,-1536,-699,16303,129,176,-6630,1,-130,1534,276,
49781,-1439,-643,16318,14,519,-6450,1,-124,1530,270,
49802,-1264,-580,16251,188,464,-6125,1,-129,1529,277,
49822,-1150,-574,16121,535,144,-5622,1,-119,1523,265,
49843,-1028,-627,16010,883,-451,-5057,1,-114,1524,270,
49863,-928,-706,15877,1190,-1065,-4562,1,-121,1527,263,
49883,-813,-826,15847,1358,-1605,-4233,1,-125,1525,271,
49903,-672,-1046,15772,1386,-2022,-4055,1,-119,1519,269,
49924,-477,-1294,15722,1223,-2192,-3971,1,-120,1518,266,
49944,-328,-1483,15761,785,-2090,-3887,1,-121,1521,277,
49965,-286,-1549,15790,118,-1715,-3704,1,-117,1517,267,
49985,-325,-1543,15894,-707,-995,-3498,1,-111,1517,267,
