t,ax,ay,az,gx,gy,gz,mag_valid,mx,my,mz,
5017,-1241,161,16160,-80,-17,107,1,16,1574,300,
5027,-1242,156,16159,-81,-20,109,1,16,1578,300,
5037,-1241,169,16159,-79,-20,110,1,12,1578,306,
5047,-1244,164,16172,-80,-21,106,1,12,1576,298,
5057,-1249,158,16178,-75,-23,109,1,11,1569,303,
5067,-1247,159,16181,-75,-24,109,1,11,1567,299,
5077,-1248,164,16172,-74,-21,108,1,14,1572,304,
5087,-1244,162,16172,-74,-19,108,1,19,1577,307,
5097,-1246,164,16166,-77,-19,107,1,8,1574,306,
5107,-1242,171,16162,-77,-19,104,1,14,1572,304,
5117,-1252,169,16167,-79,-21,106,1,22,1572,304,
5127,-1256,170,16150,-78,-18,102,1,14,1576,300,
5137,-1248,167,16160,-76,-16,102,1,11,1575,299,
5147,-1243,162,16166,-74,-17,102,1,17,1573,303,
5157,-1239,160,16162,-72,-19,103,1,14,1572,304,
5167,-1250,164,16153,-78,-19,103,1,8,1576,300,
5177,-1244,161,16159,-78,-21,108,1,19,1573,305,
5187,-1247,162,16163,-80,-20,107,1,11,1577,299,
5197,-1239,161,16159,-78,-19,108,1,18,1572,312,
5207,-1240,164,16170,-80,-20,107,1,8,1578,304,
5217,-1235,166,16169,-81,-17,109,1,16,1574,306,
5227,-1243,165,16165,-82,-18,112,1,18,1572,298,
5237,-1245,161,16171,-82,-21,112,1,15,1575,307,
5247,-1240,167,16165,-80,-18,110,1,12,1572,302,
5257,-1243,156,16160,-78,-20,109,1,17,1569,305,
5267,-1245,163,16157,-79,-22,109,1,16,1574,306,
5277,-1239,168,16162,-76,-20,107,1,9,1575,301,
5287,-1235,169,16173,-78,-19,107,1,6,1570,312,
5298,-1235,164,16164,-78,-20,107,1,16,1574,306,
5308,-1240,161,16162,-80,-20,105,1,16,1578,298,
5318,-1237,164,16163,-78,-21,105,1,16,1578,300,
5328,-1230,162,16159,-75,-24,106,1,4,1578,304,
5339,-1224,161,16156,-75,-21,106,1,11,1569,303,
5349,-1233,170,16160,-73,-21,109,1,9,1577,299,
5359,-1227,171,16163,-75,-24,108,1,13,1575,305,
5369,-1225,171,16169,-75,-20,108,1,14,1572,300,
5379,-1230,174,16175,-78,-21,110,1,9,1573,307,
5389,-1235,168,16182,-73,-20,109,1,8,1570,302,
5399,-1234,173,16164,-71,-17,110,1,12,1574,308,
5410,-1232,175,16162,-70,-18,108,1,10,1578,298,
5420,-1239,169,16157,-73,-21,107,1,16,1580,306,
5430,-1240,164,16157,-77,-19,108,1,5,1573,305,
5440,-1243,163,16150,-78,-18,108,1,12,1568,300,
5451,-1240,167,16160,-79,-19,106,1,17,1581,299,
5461,-1241,170,16159,-80,-19,108,1,11,1573,307,
5471,-1242,163,16150,-79,-23,108,1,11,1575,299,
5481,-1248,159,16139,-81,-22,104,1,8,1570,304,
5491,-1241,153,16144,-79,-21,108,1,16,1574,306,
5501,-1237,154,16156,-79,-21,106,1,13,1573,297,
5511,-1240,156,16163,-78,-22,108,1,14,1572,306,
5522,-1233,155,16162,-77,-21,106,1,13,1579,307,
5532,-1232,147,16156,-80,-21,107,1,7,1573,309,
5542,-1233,156,16153,-80,-23,108,1,21,1569,309,
5552,-1235,156,16165,-80,-19,106,1,14,1576,300,
5563,-1232,162,16154,-83,-16,107,1,21,1571,299,
5573,-1238,159,16167,-81,-19,105,1,4,1572,308,
5583,-1240,160,16157,-78,-19,107,1,3,1573,307,
5593,-1240,160,16162,-78,-22,103,1,16,1578,312,
5603,-1239,162,16150,-80,-22,105,1,14,1576,300,
5613,-1239,160,16153,-80,-22,105,1,14,1568,310,
5634,-1252,157,16171,-82,-18,103,1,17,1575,309,
5654,-1252,159,16171,-83,-18,103,1,15,1573,299,
5675,-1251,162,16178,-83,-19,108,1,17,1575,307,
5695,-1247,162,16169,-84,-21,113,1,13,1573,305,
5715,-1238,168,16179,-83,-19,110,1,14,1576,298,
5736,-1246,169,16165,-77,-22,110,1,10,1570,302,
5756,-1235,172,16163,-72,-24,110,1,7,1571,303,
5776,-1237,170,16160,-77,-24,104,1,17,1579,311,
5797,-1241,167,16167,-77,-26,100,1,18,1568,310,
5817,-1248,179,16162,-76,-20,103,1,19,1577,303,
5837,-1245,170,16168,-77,-23,104,1,7,1575,299,
5858,-1248,159,16157,-80,-23,103,1,15,1571,297,
5878,-1246,155,16157,-80,-20,106,1,16,1578,310,
5899,-1250,151,16161,-79,-19,109,1,14,1576,306,
5919,-1253,162,16144,-75,-16,110,1,17,1583,305,
5939,-1243,160,16153,-77,-17,109,1,11,1575,305,
5960,-1237,165,16167,-81,-14,110,1,15,1573,311,
5980,-1234,154,16164,-79,-17,103,1,22,1576,304,
6000,-1238,157,16175,-78,-18,103,1,12,1582,300,
6021,-1246,152,16166,-78,-25,106,1,10,1576,310,
6041,-1250,152,16172,-73,-20,107,1,9,1569,303,
6061,-1248,168,16162,-74,-20,109,1,11,1567,313,
6082,-1233,162,16149,-74,-24,108,1,17,1569,301,
6102,-1233,156,16160,-75,-21,110,1,14,1576,306,
6123,-1231,158,16176,-77,-21,107,1,10,1570,300,
6143,-1247,171,16169,-77,-21,107,1,15,1571,305,
6163,-1255,168,16156,-78,-21,100,1,13,1577,299,
6184,-1247,160,16151,-78,-18,99,1,19,1573,305,
6204,-1238,164,16154,-77,-22,101,1,11,1575,303,
6224,-1240,160,16158,-80,-24,107,1,9,1573,307,
6245,-1230,162,16158,-78,-26,108,1,18,1572,298,
6265,-1223,154,16156,-75,-23,108,1,16,1568,306,
6285,-1225,160,16172,-74,-25,110,1,15,1577,303,
6306,-1231,155,16163,-81,-26,106,1,20,1570,298,
6326,-1244,178,16176,-84,-24,105,1,16,1572,300,
6347,-1244,173,16171,-82,-24,107,1,16,1574,306,
6367,-1248,168,16166,-78,-23,103,1,20,1566,298,
6387,-1243,157,16165,-80,-27,102,1,16,1572,302,
6408,-1229,161,16164,-85,-22,101,1,12,1572,308,
6428,-1233,157,16159,-86,-18,106,1,8,1576,300,
6448,-1236,151,16158,-88,-23,106,1,11,1577,303,
6469,-1246,149,16162,-81,-27,106,1,24,1568,300,
6489,-1247,153,16159,-80,-24,104,1,15,1569,311,
6509,-1254,166,16165,-81,-25,106,1,11,1575,307,
6530,-1245,161,16169,-78,-24,104,1,13,1571,301,
6550,-1236,157,16165,-79,-22,104,1,22,1574,304,
6571,-1237,156,16169,-79,-25,104,1,20,1572,294,
6591,-1241,163,16177,-81,-28,100,1,9,1577,303,
6611,-1245,165,16172,-83,-26,106,1,20,1570,306,
6632,-1250,164,16160,-82,-26,102,1,8,1570,308,
6652,-1251,163,16161,-80,-27,101,1,18,1578,306,
6672,-1246,161,16155,-79,-23,108,1,10,1574,300,
6693,-1240,163,16150,-76,-26,108,1,14,1570,300,
6713,-1245,152,16170,-75,-21,106,1,14,1568,306,
6733,-1250,153,16176,-76,-18,106,1,20,1572,304,
6743,-1254,152,16164,-76,-22,105,1,14,1576,298,
6764,-1262,154,16184,-76,-19,105,1,13,1573,305,
6784,-1243,159,16185,-72,-22,105,1,15,1569,303,
6805,-1244,161,16178,-73,-20,107,1,15,1577,311,
6825,-1241,159,16186,-72,-20,103,1,11,1583,301,
6845,-1230,154,16169,-74,-22,104,1,14,1572,306,
6866,-1232,160,16175,-77,-24,106,1,14,1572,304,
6886,-1232,161,16161,-77,-22,110,1,15,1569,299,
6906,-1240,160,16154,-75,-24,106,1,9,1571,303,
6927,-1240,167,16148,-78,-21,107,1,23,1575,309,
6947,-1238,160,16139,-78,-21,104,1,14,1572,300,
6967,-1250,166,16161,-75,-21,104,1,11,1577,303,
6988,-1247,166,16158,-75,-22,105,1,14,1572,298,
7008,-1236,162,16163,-79,-23,106,1,17,1567,301,
7029,-1228,161,16169,-77,-22,109,1,14,1570,302,
7049,-1228,164,16171,-78,-22,103,1,15,1581,301,
7069,-1233,165,16166,-74,-22,102,1,21,1577,305,
7090,-1244,161,16152,-75,-28,103,1,10,1570,314,
7110,-1235,161,16158,-75,-28,104,1,5,1573,305,
7130,-1247,170,16168,-78,-25,109,1,9,1581,303,
7151,-1244,172,16174,-80,-22,106,1,16,1570,308,
7171,-1249,170,16186,-80,-25,108,1,11,1565,303,
7191,-1242,162,16162,-79,-28,106,1,12,1574,306,
7212,-1243,167,16157,-76,-27,100,1,14,1574,306,
7232,-1242,162,16161,-78,-25,101,1,12,1576,304,
7253,-1233,153,16159,-74,-25,106,1,19,1575,303,
7273,-1229,161,16152,-74,-23,106,1,10,1568,306,
7293,-1231,157,16155,-77,-18,108,1,14,1572,310,
7314,-1238,168,16151,-77,-22,103,1,17,1569,299,
7334,-1241,158,16146,-79,-22,103,1,16,1564,304,
7354,-1247,154,16162,-77,-23,106,1,12,1578,302,
7375,-1253,157,16157,-77,-21,108,1,23,1573,299,
7395,-1248,158,16156,-72,-22,106,1,12,1576,308,
7415,-1245,166,16159,-74,-22,106,1,12,1578,300,
7436,-1243,172,16164,-77,-25,112,1,14,1576,302,
7456,-1251,174,16153,-74,-22,114,1,17,1573,301,
7477,-1250,169,16153,-74,-24,110,1,12,1572,306,
7497,-1251,168,16159,-72,-25,107,1,15,1579,301,
7517,-1249,172,16157,-76,-21,106,1,9,1575,307,
7538,-1250,161,16158,-74,-22,107,1,10,1568,304,
7558,-1252,155,16156,-71,-20,107,1,19,1571,305,
7578,-1250,154,16167,-73,-17,107,1,16,1572,304,
7599,-1252,158,16169,-74,-21,111,1,17,1573,307,
7619,-1260,159,16171,-78,-20,108,1,14,1570,302,
7639,-1256,162,16172,-76,-20,107,1,14,1572,308,
7660,-1256,161,16157,-82,-22,105,1,18,1570,302,
7680,-1258,161,16161,-81,-23,105,1,11,1577,303,
7701,-1256,167,16166,-84,-22,102,1,12,1564,298,
7721,-1249,157,16166,-81,-19,101,1,13,1575,303,
7741,-1249,166,16169,-78,-22,106,1,10,1570,300,
7762,-1240,165,16162,-76,-16,105,1,18,1570,300,
7782,-1244,160,16188,-76,-19,103,1,17,1577,299,
7803,-1243,167,16177,-77,-20,103,1,22,1568,310,
7823,-1243,157,16188,-54,-21,107,1,18,1566,302,
7843,-1230,169,16177,-58,-21,105,1,19,1577,305,
7864,-1251,168,16175,-60,-26,102,1,10,1580,306,
7884,-1238,161,16159,-57,-24,104,1,10,1578,302,
7904,-1242,185,16153,-49,-34,101,1,21,1577,303,
7925,-1245,161,16152,-30,-47,91,1,13,1567,301,
7945,-1233,148,16156,-31,-40,101,1,18,1564,306,
7965,-1190,157,16160,-63,-32,99,1,17,1573,297,
7986,-1250,160,16177,-87,-37,98,1,14,1578,302,
8006,-1316,154,16169,-13,-44,108,1,1,1575,301,
8027,-1164,131,16154,12,-49,96,1,12,1572,302,
8047,-1285,184,16159,-13,-52,112,1,20,1576,298,
8067,-1208,113,16174,7,-44,111,1,12,1568,302,
8088,-1090,138,16161,-169,12,117,1,5,1575,305,
8108,-1288,153,16188,-199,9,113,1,12,1570,302,
8128,-1219,124,16176,-110,19,121,1,10,1570,306,
8149,-1243,225,16183,-141,8,119,1,14,1568,306,
8169,-1297,151,16184,-60,-59,118,1,8,1570,308,
8189,-1256,142,16183,-56,-20,145,1,12,1570,300,
8210,-1221,206,16162,-126,-49,94,1,12,1560,306,
8230,-1179,136,16158,-262,-40,59,1,12,1564,304,
8251,-1208,223,16170,-379,-52,28,1,18,1568,300,
8271,-1235,160,16176,-486,-88,120,1,15,1571,309,
8291,-1455,45,16152,-321,1,440,1,9,1569,299,
8312,-1534,118,16154,-31,148,896,1,18,1564,306,
8332,-1247,294,16183,0,82,1297,1,19,1569,303,
8352,-926,138,16214,-174,-2,1409,1,17,1571,311,
8373,-1078,-33,16203,-386,57,1180,1,12,1566,304,
8393,-1330,112,16185,-480,114,943,1,13,1565,307,
8413,-1322,244,16181,-531,10,903,1,19,1573,303,
8423,-1298,200,16199,-588,-15,883,1,14,1572,306,
8444,-1287,105,16184,-537,-51,763,1,13,1567,301,
8464,-1225,-44,16134,-113,-257,636,1,17,1563,303,
8485,-1423,-46,16258,280,-423,563,1,16,1566,312,
8505,-1174,-326,16939,613,-366,492,1,18,1570,304,
8525,-1126,-202,17391,1000,135,344,1,12,1566,306,
8546,-942,-151,17719,1605,965,159,1,17,1567,307,
8566,-895,-45,17969,2328,1570,-27,1,10,1554,312,
8586,-911,145,17962,2877,1714,-140,1,22,1560,306,
8607,-861,335,17783,3030,1508,-173,1,10,1562,306,
8627,-815,399,17458,2840,1131,-135,1,10,1566,308,
8648,-705,463,17224,2449,552,-46,1,13,1569,311,
8668,-539,563,17158,1934,48,32,1,12,1566,308,
8688,-520,577,17080,1390,109,137,1,12,1564,304,
8709,-604,424,16952,898,495,232,1,5,1563,309,
8729,-740,124,16735,447,830,448,1,9,1567,307,
8749,-784,-52,16696,174,939,694,1,14,1566,306,
8770,-776,-139,16648,15,737,864,1,14,1574,308,
8790,-624,-156,16494,-34,353,989,1,1,1569,311,
8810,-458,-69,16287,-59,91,1055,1,10,1570,304,
8831,-358,74,16134,-87,-185,1040,1,9,1569,303,
8851,-310,171,16064,-130,-647,966,1,11,1569,309,
8871,-314,107,16072,-147,-1305,873,1,15,1571,311,
8892,-352,-7,16154,-149,-2008,846,1,12,1564,308,
8912,-426,-5,16203,-274,-2362,896,1,10,1564,312,
8933,-410,37,16253,-369,-2051,876,1,16,1568,304,
8953,-322,154,16280,-435,-1307,819,1,6,1566,308,
8973,-301,293,16244,-528,-505,715,1,4,1566,310,
8994,-409,408,16096,-646,216,658,1,9,1567,299,
9014,-425,520,16018,-728,759,586,1,6,1564,294,
9034,-359,695,15996,-707,914,499,1,13,1571,301,
9055,-325,802,15910,-622,883,381,1,9,1565,307,
9075,-329,743,15736,-505,846,306,1,11,1569,297,
9095,-387,605,15665,-289,722,288,1,9,1565,305,
9116,-492,561,15865,42,414,282,1,16,1574,298,
9136,-566,561,15915,509,128,294,1,24,1566,308,
9156,-575,512,15799,1028,176,312,1,8,1568,308,
9177,-494,504,15769,1484,501,324,1,15,1569,305,
9197,-477,629,15841,1904,802,314,1,21,1569,303,
9218,-524,712,15859,2244,885,290,1,14,1566,308,
9238,-520,736,15762,2490,857,249,1,10,1566,296,
9258,-475,743,15677,2611,820,203,1,8,1570,296,
9279,-456,747,15533,2650,834,186,1,13,1575,297,
9299,-418,712,15390,2604,913,222,1,13,1567,299,
9320,-312,742,15428,2533,958,282,1,8,1564,300,
9340,-37,812,15605,2566,854,303,1,13,1563,293,
9360,347,867,15762,2670,693,282,1,11,1569,307,
9380,630,872,15896,2825,633,245,1,11,1561,297,
9401,846,910,15977,3017,659,136,1,6,1570,314,
9421,1044,922,15944,3150,738,1,1,11,1569,307,
9442,1251,989,15993,3184,798,-103,1,1,1567,309,
9462,1377,993,15967,3147,742,-234,1,3,1573,299,
9482,1528,960,15978,3192,640,-298,1,-3,1573,303,
9503,1704,963,15940,3269,567,-349,1,0,1572,298,
9523,1859,993,15888,3309,536,-354,1,5,1571,311,
9543,1996,1033,15889,3293,536,-347,1,2,1570,308,
9564,2127,1074,15948,3304,536,-328,1,-1,1563,307,
9584,2251,1090,15960,3311,569,-282,1,9,1577,299,
9605,2383,1107,15983,3379,648,-212,1,-2,1578,302,
9625,2503,1177,15975,3515,673,-136,1,5,1569,305,
9645,2597,1264,15832,3599,719,-98,1,3,1565,311,
9666,2765,1292,15744,3702,880,-75,1,2,1568,308,
9686,2949,1366,15721,3877,1005,-78,1,-5,1569,311,
9706,3122,1406,15626,4044,950,-95,1,-5,1573,319,
9727,3269,1418,15556,4212,747,-117,1,-6,1574,300,
9747,3445,1417,15454,4347,494,-131,1,-5,1569,309,
9767,3598,1435,15375,4421,229,-144,1,-11,1571,315,
9788,3716,1404,15221,4450,42,-150,1,-10,1574,312,
9808,3807,1351,15176,4473,-73,-171,1,-10,1568,316,
9829,3884,1373,15148,4552,-198,-235,1,-11,1573,315,
9849,4116,1422,15093,4640,-295,-364,1,-19,1573,309,
9869,4476,1386,15159,4655,-216,-493,1,-14,1574,322,
9890,4800,1318,15202,4612,35,-585,1,-20,1566,316,
9910,5103,1233,15204,4492,315,-628,1,-15,1577,311,
9930,5389,1218,15175,4342,518,-635,1,-19,1567,315,
9951,5631,1284,15157,4230,507,-564,1,-16,1572,320,
9971,5851,1335,15184,4205,375,-524,1,-25,1571,321,
9991,6054,1357,15186,4276,252,-487,1,-20,1578,324,
10012,6165,1335,15085,4399,256,-465,1,-25,1581,327,
10032,6271,1308,14940,4529,309,-472,1,-21,1577,315,
10053,6372,1309,14782,4611,322,-479,1,-15,1571,319,
10073,6464,1335,14575,4598,327,-458,1,-22,1578,310,
10093,6517,1371,14377,4481,336,-443,1,-32,1582,320,
10114,6679,1390,14304,4337,290,-420,1,-24,1568,322,
10134,6915,1418,14256,4160,275,-411,1,-35,1575,319,
10155,7130,1396,14265,4010,401,-436,1,-31,1577,325,
10175,7252,1314,14225,3987,570,-441,1,-35,1575,323,
10195,7397,1249,14168,4032,672,-402,1,-27,1571,321,
10216,7576,1201,14068,4068,686,-312,1,-30,1578,326,
10236,7733,1226,14025,4100,700,-222,1,-31,1581,325,
10256,7958,1300,13935,4165,785,-175,1,-39,1583,325,
10277,8241,1329,13849,4327,895,-153,1,-39,1587,323,
10297,8494,1331,13784,4576,877,-142,1,-41,1567,325,
10317,8695,1323,13600,4882,820,-105,1,-34,1572,322,
10338,8871,1420,13437,5169,758,-106,1,-36,1582,326,
10358,9064,1507,13185,5434,654,-141,1,-51,1583,329,
10378,9246,1648,12894,5619,534,-201,1,-43,1579,313,
10399,9379,1776,12676,5643,403,-291,1,-42,1580,328,
10419,9492,1827,12458,5604,309,-422,1,-44,1578,320,
10440,9612,1837,12290,5543,321,-565,1,-48,1578,324,
10460,9771,1794,12165,5498,391,-708,1,-46,1582,322,
10480,9964,1689,12129,5483,488,-828,1,-54,1580,326,
10501,10237,1589,12180,5612,577,-921,1,-49,1583,331,
10521,10475,1501,12080,5862,712,-964,1,-49,1577,323,
10541,10735,1509,11896,6113,868,-948,1,-54,1586,328,
10562,11045,1569,11638,6327,871,-919,1,-61,1581,327,
10582,11313,1589,11299,6468,742,-877,1,-56,1582,314,
10603,11613,1663,11020,6590,567,-857,1,-64,1584,318,
10623,11815,1733,10669,6707,397,-901,1,-67,1587,329,
10643,11954,1725,10367,6802,170,-990,1,-66,1582,322,
10664,12082,1642,10067,6876,-133,-1079,1,-66,1586,326,
10684,12239,1566,9845,6902,-467,-1149,1,-71,1581,317,
10704,12434,1501,9595,6859,-723,-1217,1,-63,1577,321,
10725,12615,1364,9492,6743,-906,-1265,1,-67,1585,333,
10745,12765,1161,9380,6676,-1028,-1256,1,-74,1584,322,
10765,12992,1056,9212,6651,-1059,-1189,1,-76,1586,324,
10786,13274,1028,9004,6675,-1023,-1116,1,-78,1578,320,
10806,13527,961,8752,6800,-1069,-1041,1,-79,1571,325,
10826,13703,856,8440,6979,-1287,-966,1,-82,1580,320,
10847,13754,713,8004,7170,-1580,-875,1,-85,1577,321,
10867,13923,616,7768,7293,-1748,-736,1,-92,1586,324,
10887,13946,565,7679,7472,-1613,-662,1,-83,1577,325,
10908,13922,480,7606,7821,-1302,-631,1,-95,1583,323,
10928,14066,420,7286,8118,-946,-604,1,-98,1580,316,
10949,14198,371,6830,8214,-647,-553,1,-91,1579,323,
10969,14329,329,6383,8148,-400,-500,1,-84,1572,316,
10989,14547,308,5981,7973,-207,-440,1,-91,1583,307,
11010,14804,355,5580,7710,-17,-414,1,-96,1582,314,
11030,14915,344,5292,7498,55,-435,1,-99,1579,317,
11050,14983,268,4919,7211,-94,-449,1,-98,1578,312,
11071,15094,275,4476,6771,-220,-467,1,-103,1579,317,
11091,15090,297,4218,6261,-226,-526,1,-111,1581,313,
11112,15034,288,4016,5802,-218,-646,1,-105,1587,303,
11132,15133,236,3797,5426,-288,-774,1,-106,1582,308,
11152,15214,79,3752,5103,-346,-849,1,-109,1575,319,
11173,15306,-118,3781,4926,-233,-842,1,-112,1580,302,
11193,15420,-217,3611,4881,-94,-762,1,-111,1573,319,
11213,15541,-221,3249,4862,-104,-655,1,-107,1577,311,
11234,15660,-137,3009,4871,-282,-577,1,-114,1580,304,
11254,15857,-103,2699,4874,-386,-564,1,-114,1578,300,
11275,15998,-154,2388,4890,-381,-581,1,-114,1578,308,
11295,16032,-280,2039,4920,-540,-538,1,-117,1581,309,
11315,16036,-377,1731,4925,-916,-412,1,-115,1575,303,
11336,15943,-457,1527,4906,-1371,-209,1,-117,1575,307,
11356,15831,-441,1399,4872,-1654,10,1,-114,1574,306,
11376,15855,-247,1287,4827,-1651,141,1,-117,1579,307,
11396,15903,-60,1116,4754,-1471,128,1,-115,1575,303,
11417,15882,-46,903,4693,-1273,32,1,-120,1574,300,
11438,15927,-142,708,4631,-1097,-1,1,-121,1583,299,
11458,16000,-160,458,4445,-883,24,1,-123,1579,305,
11478,16004,-115,307,4158,-651,31,1,-119,1569,305,
11498,15963,-60,161,3875,-377,21,1,-126,1576,298,
11519,15913,-54,-11,3676,-130,-9,1,-124,1580,298,
11539,15914,-92,-235,3489,0,-30,1,-120,1574,300,
11560,15995,-117,-488,3239,64,-39,1,-127,1581,305,
11580,16092,-109,-616,2969,105,-45,1,-124,1574,298,
11600,16150,-89,-734,2742,98,-67,1,-126,1568,298,
11621,16071,-113,-889,2535,104,-93,1,-130,1576,292,
11641,16024,-112,-1119,2239,90,-106,1,-128,1578,298,
11661,16052,-63,-1235,1896,-23,-154,1,-130,1576,300,
11681,16095,-70,-1264,1556,-165,-239,1,-125,1573,303,
11702,16105,-176,-1254,1271,-261,-310,1,-130,1578,292,
11723,16146,-318,-1247,1051,-275,-288,1,-127,1575,295,
11743,16167,-395,-1232,825,-263,-177,1,-120,1572,298,
11763,16187,-385,-1245,563,-295,-18,1,-121,1577,299,
11784,16174,-335,-1276,269,-324,146,1,-125,1577,291,
11804,16193,-259,-1287,-70,-282,294,1,-133,1579,295,
11824,16193,-182,-1286,-375,-219,393,1,-122,1574,290,
11844,16172,-156,-1274,-557,-247,453,1,-126,1572,298,
11865,16136,-155,-1288,-609,-295,486,1,-121,1579,287,
11885,16093,-158,-1299,-582,-365,503,1,-127,1573,295,
11906,16070,-154,-1317,-532,-462,508,1,-124,1582,296,
11926,16037,-126,-1335,-477,-565,506,1,-128,1574,300,
11946,16039,-61,-1291,-419,-697,489,1,-131,1579,295,
11967,16041,-13,-1216,-367,-730,447,1,-129,1581,293,
11987,16050,13,-1103,-315,-634,384,1,-125,1571,297,
12008,16062,26,-1042,-269,-436,315,1,-128,1582,298,
12028,16035,-25,-1049,-238,-195,237,1,-123,1569,293,
12048,16015,-98,-1064,-202,-24,175,1,-132,1576,292,
12069,16030,-189,-1071,-141,20,140,1,-126,1574,298,
12089,16071,-267,-1050,-73,-20,143,1,-118,1576,294,
12109,16101,-247,-1063,-11,-89,164,1,-130,1576,298,
12130,16102,-162,-1072,-8,-172,167,1,-134,1572,296,
12150,16086,-122,-1077,-55,-194,142,1,-127,1575,291,
12170,16039,-117,-1048,-139,-141,136,1,-125,1575,293,
12191,16006,-103,-1036,-255,-87,138,1,-126,1572,300,
12211,15959,-132,-1017,-390,-58,169,1,-131,1585,295,
12232,15984,-149,-968,-570,18,193,1,-119,1577,297,
12252,15992,-109,-956,-805,135,180,1,-121,1581,297,
12272,16015,-100,-926,-1032,207,116,1,-131,1581,293,
12293,15970,-158,-891,-1242,221,63,1,-133,1573,303,
12313,15950,-223,-890,-1468,215,21,1,-134,1574,300,
12333,15976,-273,-842,-1749,158,-20,1,-129,1573,301,
12354,15969,-352,-747,-2083,40,-50,1,-125,1577,293,
12374,15967,-364,-629,-2513,-94,-49,1,-128,1584,292,
12394,15966,-297,-457,-2966,-179,-41,1,-127,1575,293,
12415,15989,-231,-283,-3451,-202,-24,1,-130,1580,302,
12435,16016,-181,-101,-3971,-90,-2,1,-129,1575,303,
12455,16030,-157,75,-4487,92,18,1,-123,1591,299,
12476,16032,-170,242,-5001,239,35,1,-120,1570,310,
12496,16099,-192,455,-5543,307,32,1,-113,1581,305,
12517,16171,-197,709,-6020,315,23,1,-119,1569,307,
12537,16247,-197,1011,-6468,346,24,1,-116,1576,308,
12557,16187,-144,1248,-6931,404,10,1,-115,1577,309,
12578,16061,-90,1445,-7391,390,-34,1,-115,1577,307,
12598,15980,-60,1702,-7881,291,-88,1,-115,1577,313,
12618,15932,-58,2091,-8278,245,-132,1,-107,1577,313,
12639,15878,-59,2525,-8451,214,-186,1,-102,1576,310,
12659,15798,-77,2931,-8565,151,-224,1,-103,1569,313,
12680,15650,-79,3316,-8671,215,-290,1,-106,1576,306,
12700,15483,-68,3663,-8804,311,-366,1,-101,1575,315,
12720,15366,-80,3988,-8963,324,-429,1,-98,1574,322,
12740,15201,-160,4340,-9210,345,-444,1,-95,1579,319,
12761,14955,-287,4735,-9486,526,-399,1,-96,1576,314,
12781,14682,-386,5154,-9735,733,-304,1,-86,1574,328,
12802,14452,-452,5518,-9915,753,-185,1,-85,1575,317,
12822,14345,-492,5839,-10057,636,-47,1,-89,1575,319,
12843,14254,-503,6251,-10195,524,123,1,-88,1568,320,
12863,14100,-488,6660,-10227,460,273,1,-82,1578,314,
12883,14032,-468,6998,-10280,412,400,1,-86,1576,320,
12903,13931,-412,7397,-10305,299,515,1,-83,1569,323,
12924,13813,-310,7772,-10296,-6,595,1,-77,1577,323,
12944,13717,-66,8139,-10224,-488,575,1,-64,1578,326,
12965,13611,158,8634,-10152,-946,428,1,-71,1577,327,
12985,13336,227,9227,-10064,-1055,177,1,-67,1577,323,
13005,13002,126,9691,-9931,-917,-47,1,-68,1570,322,
13026,12695,31,9904,-9888,-726,-170,1,-68,1564,330,
13046,12448,-68,10171,-9905,-529,-247,1,-62,1574,328,
13066,12200,-161,10567,-9938,-409,-261,1,-60,1570,324,
13087,11924,-212,11066,-9855,-366,-242,1,-56,1570,324,
13107,11597,-104,11375,-9685,-309,-258,1,-53,1573,335,
13128,11167,28,11456,-9693,-86,-372,1,-52,1570,330,
13148,10649,-158,11765,-9804,188,-477,1,-48,1568,330,
13168,10234,-540,12312,-9752,164,-386,1,-49,1569,321,
13188,9939,-545,12552,-9565,22,-206,1,-33,1571,331,
13209,9603,-220,12702,-9405,-27,-180,1,-40,1566,318,
13229,9210,-91,12881,-9305,122,-363,1,-32,1578,322,
13250,8877,-211,13166,-9157,248,-581,1,-34,1570,320,
13270,8579,-424,13403,-8985,190,-675,1,-30,1574,314,
13290,8252,-535,13580,-8772,45,-665,1,-30,1572,322,
13311,7945,-611,13880,-8500,-158,-608,1,-30,1570,322,
13331,7628,-526,14007,-8200,-289,-585,1,-30,1576,318,
13351,7301,-572,13994,-8007,-319,-592,1,-27,1571,319,
13372,7064,-785,14162,-7904,-399,-525,1,-34,1576,314,
13392,6802,-863,14474,-7828,-522,-372,1,-13,1573,317,
13413,6518,-645,14688,-7774,-610,-282,1,-25,1573,321,
13433,6232,-647,14782,-7753,-550,-277,1,-15,1575,317,
13453,5941,-753,14941,-7728,-355,-241,1,-17,1569,309,
13474,5634,-816,15151,-7667,-231,-155,1,-12,1574,312,
13494,5314,-791,15292,-7576,-230,-49,1,-15,1579,303,
13514,4984,-727,15370,-7478,-282,-9,1,-13,1569,311,
13535,4647,-739,15560,-7359,-346,25,1,-9,1573,313,
13555,4317,-702,15728,-7187,-239,36,1,-6,1576,312,
13575,4062,-666,15815,-7028,97,58,1,-7,1575,307,
13596,3822,-704,15800,-6919,380,72,1,-6,1570,302,
13616,3570,-751,15852,-6859,338,113,1,0,1572,308,
13636,3303,-753,16018,-6770,46,181,1,13,1569,303,
13657,2995,-703,16236,-6611,-26,216,1,3,1577,311,
13677,2667,-673,16338,-6423,230,214,1,7,1567,303,
13697,2350,-665,16339,-6234,511,222,1,3,1567,303,
13718,2100,-700,16353,-6044,610,248,1,4,1566,306,
13738,1858,-714,16451,-5806,634,312,1,7,1575,299,
13759,1608,-683,16498,-5527,759,382,1,12,1574,292,
13779,1327,-631,16473,-5204,912,445,1,8,1570,298,
13799,1130,-522,16381,-4905,911,473,1,14,1568,300,
13819,943,-461,16411,-4614,833,474,1,6,1570,294,
13840,691,-426,16516,-4274,818,459,1,12,1580,296,
13860,452,-394,16601,-3871,933,445,1,9,1571,291,
13881,243,-348,16478,-3441,1052,411,1,10,1572,286,
13901,92,-303,16295,-3066,988,375,1,9,1575,293,
13921,-78,-217,16179,-2711,807,334,1,17,1577,289,
13931,-159,-159,16129,-2543,712,314,1,6,1568,292,
13952,-369,-55,15948,-2220,629,233,1,9,1579,291,
13972,-495,-29,15854,-1998,604,142,1,15,1573,291,
13982,-544,-47,15834,-1936,550,99,1,8,1574,288,
14003,-659,-107,15803,-1903,366,43,1,12,1566,282,
14023,-754,-145,15738,-1985,219,13,1,18,1572,290,
14044,-855,-141,15783,-2190,124,-17,1,14,1564,296,
14064,-1034,-32,15778,-2571,-52,-38,1,14,1572,284,
14084,-1180,-62,15684,-3072,-252,-58,1,6,1574,286,
14105,-1274,-191,15732,-3693,-397,-12,1,12,1564,288,
14125,-1358,-238,15797,-4485,-575,127,1,19,1563,287,
14145,-1522,-319,15859,-5174,-721,106,1,19,1565,283,
14166,-1496,-381,15853,-5744,-698,146,1,21,1573,289,
14186,-1652,-309,16050,-6445,-624,236,1,26,1562,286,
14206,-1850,-17,16189,-7082,-800,284,1,19,1571,271,
14227,-2161,-101,16111,-7623,-1218,184,1,20,1558,284,
14247,-2678,-157,16050,-8108,-1864,113,1,20,1564,276,
14267,-3318,-386,16006,-8494,-2597,-56,1,22,1576,280,
14288,-3653,-536,15945,-8737,-2816,-191,1,30,1568,272,
14308,-3894,-744,15831,-8947,-2334,-358,1,27,1571,275,
14329,-4276,-847,15851,-9024,-1774,-436,1,34,1558,268,
14349,-4752,-922,15838,-8924,-1545,-498,1,33,1577,267,
14369,-5232,-979,15762,-8807,-1537,-594,1,34,1562,264,
14390,-5518,-1045,15555,-8830,-1455,-743,1,37,1575,263,
14410,-5655,-1186,15459,-8939,-1357,-738,1,30,1570,266,
14431,-6034,-1133,15428,-9146,-1244,-700,1,29,1567,259,
14451,-6464,-1174,15292,-9239,-1070,-623,1,34,1566,252,
14471,-6888,-1255,15087,-9073,-812,-622,1,31,1565,253,
14492,-7167,-1103,14821,-8775,-467,-662,1,39,1569,249,
14512,-7343,-968,14691,-8577,-293,-689,1,39,1575,249,
14532,-7697,-988,14545,-8544,-280,-750,1,46,1568,248,
14553,-8189,-1090,14278,-8649,-301,-680,1,34,1568,244,
14573,-8618,-1203,13946,-8795,-224,-633,1,41,1569,243,
14593,-8887,-1209,13718,-8950,-132,-517,1,42,1582,240,
14614,-9173,-1250,13467,-9173,-100,-359,1,41,1569,237,
14634,-9530,-1238,13215,-9414,-67,-185,1,44,1570,236,
14654,-9935,-1265,12990,-9654,26,-42,1,49,1565,237,
14675,-10329,-1181,12872,-9942,110,157,1,42,1562,222,
14695,-10685,-1095,12569,-10214,41,322,1,47,1569,223,
14715,-10961,-1050,12150,-10358,-35,390,1,41,1571,219,
14736,-11221,-1009,11829,-10549,-160,473,1,37,1569,215,
14756,-11534,-921,11479,-10821,-375,524,1,37,1571,223,
14777,-11817,-890,11095,-11031,-678,452,1,48,1576,220,
14797,-12051,-917,10590,-11108,-973,316,1,53,1567,205,
14817,-12450,-963,10164,-11108,-1154,140,1,44,1568,202,
14838,-12951,-1106,9840,-11143,-1068,6,1,48,1568,200,
14858,-13484,-1345,9540,-11258,-620,-7,1,45,1571,207,
14878,-13787,-1516,9202,-11278,-29,44,1,42,1568,200,
14899,-14015,-1579,8920,-11118,560,60,1,38,1570,194,
14919,-14295,-1375,8575,-10771,1064,86,1,43,1569,191,
14940,-14422,-1271,8241,-10427,1326,122,1,41,1569,191,
14960,-14455,-1313,7792,-10238,1298,154,1,37,1569,189,
14980,-14586,-1343,7367,-10094,1015,177,1,50,1570,182,
15001,-14856,-1343,6921,-9860,689,188,1,38,1574,178,
15021,-15135,-1408,6518,-9608,507,244,1,42,1566,178,
15041,-15299,-1401,6172,-9403,405,351,1,41,1567,173,
15062,-15474,-1265,5779,-9235,227,406,1,42,1566,172,
15082,-15634,-1176,5322,-8991,1,397,1,39,1565,169,
15102,-15809,-1168,4974,-8687,-186,371,1,40,1572,170,
15123,-15933,-1210,4689,-8618,-383,441,1,36,1568,166,
15143,-16064,-1183,4166,-8580,-573,524,1,37,1563,169,
15164,-16071,-1269,3661,-8474,-888,545,1,42,1570,164,
15184,-16049,-1357,3273,-8550,-1414,593,1,31,1565,157,
15204,-16085,-1403,2758,-8669,-1956,659,1,32,1560,158,
15225,-16263,-1529,2258,-8580,-2082,729,1,31,1569,157,
15245,-16521,-1657,1848,-8267,-1711,910,1,24,1566,152,
15265,-16654,-1682,1561,-7826,-1210,1142,1,24,1560,156,
15286,-16675,-1643,1413,-7430,-896,1352,1,24,1570,156,
15306,-16775,-1524,1293,-7023,-810,1389,1,30,1576,146,
15326,-16840,-1474,1121,-6582,-867,1292,1,32,1574,154,
15347,-16757,-1570,866,-6236,-930,1182,1,35,1571,147,
15367,-16793,-1559,619,-5901,-978,1040,1,23,1571,145,
15388,-16869,-1531,444,-5539,-1040,885,1,19,1571,143,
15408,-16802,-1610,211,-5293,-1118,769,1,26,1564,148,
15428,-16689,-1638,23,-5181,-1279,634,1,21,1565,145,
15448,-16709,-1626,-113,-5059,-1480,435,1,21,1571,143,
15469,-16778,-1662,-350,-4938,-1522,203,1,25,1565,151,
15489,-16865,-1747,-596,-4844,-1294,47,1,24,1574,136,
15509,-16806,-1715,-812,-4746,-992,-72,1,19,1573,147,
15530,-16732,-1647,-982,-4624,-795,-197,1,17,1571,147,
15550,-16721,-1644,-1322,-4486,-565,-309,1,22,1570,142,
15571,-16737,-1723,-1552,-4301,-223,-318,1,13,1575,137,
15591,-16723,-1712,-1735,-4138,5,-276,1,17,1577,139,
15611,-16715,-1710,-1939,-4016,36,-200,1,16,1572,134,
15632,-16672,-1623,-2176,-3865,-37,-117,1,12,1576,144,
15652,-16593,-1580,-2362,-3687,-84,-48,1,16,1576,138,
15672,-16491,-1630,-2457,-3537,-52,4,1,15,1571,135,
15693,-16492,-1624,-2579,-3355,-4,38,1,23,1571,131,
15713,-16516,-1638,-2722,-3147,12,65,1,21,1575,137,
15734,-16516,-1716,-2902,-2867,124,102,1,6,1572,132,
15754,-16540,-1763,-3058,-2496,293,184,1,7,1571,135,
15774,-16533,-1772,-3191,-2084,331,264,1,14,1570,136,
15795,-16453,-1748,-3200,-1702,202,331,1,11,1571,131,
15815,-16353,-1596,-3162,-1341,-12,352,1,14,1578,132,
15836,-16230,-1487,-3147,-1021,-169,277,1,14,1574,132,
15856,-16145,-1445,-3114,-740,-163,139,1,12,1572,136,
15876,-16134,-1452,-3111,-467,-6,-32,1,13,1577,137,
15897,-16204,-1480,-3106,-249,150,-183,1,8,1570,132,
15917,-16301,-1555,-3179,-82,266,-318,1,18,1570,134,
15937,-16340,-1630,-3267,30,349,-398,1,5,1567,127,
15958,-16397,-1653,-3316,61,355,-407,1,13,1573,127,
15978,-16435,-1676,-3405,62,365,-379,1,12,1568,138,
15998,-16444,-1668,-3462,83,409,-329,1,11,1567,129,
16019,-16435,-1653,-3494,100,435,-255,1,7,1583,135,
16039,-16458,-1697,-3498,80,408,-156,1,10,1576,138,
16059,-16475,-1742,-3523,22,365,-31,1,11,1577,135,
16080,-16474,-1700,-3499,-57,279,87,1,12,1568,130,
16100,-16427,-1660,-3449,-121,209,152,1,5,1571,137,
16120,-16380,-1640,-3412,-197,211,163,1,13,1571,139,
16141,-16367,-1643,-3396,-305,342,161,1,16,1582,130,
16161,-16302,-1639,-3417,-383,552,148,1,9,1565,135,
16181,-16288,-1597,-3386,-387,624,106,1,14,1574,128,
16202,-16357,-1615,-3391,-385,526,76,1,15,1573,133,
16222,-16380,-1641,-3406,-402,374,94,1,14,1572,134,
16243,-16404,-1631,-3449,-394,240,105,1,6,1574,136,
16263,-16406,-1601,-3482,-353,128,111,1,12,1578,128,
16283,-16403,-1566,-3488,-240,69,100,1,9,1571,137,
16304,-16367,-1579,-3436,-101,70,60,1,9,1575,137,
16324,-16325,-1575,-3466,-4,102,22,1,9,1577,133,
16344,-16304,-1580,-3493,88,143,-23,1,0,1574,136,
16365,-16291,-1614,-3467,164,156,-40,1,8,1574,132,
16385,-16295,-1659,-3454,212,135,-67,1,18,1568,132,
16406,-16376,-1700,-3480,245,157,-87,1,17,1565,133,
16426,-16433,-1710,-3435,239,178,-83,1,9,1563,129,
16446,-16465,-1697,-3426,201,138,-72,1,12,1568,134,
16467,-16467,-1653,-3412,184,135,-77,1,17,1571,133,
16487,-16450,-1626,-3458,209,181,-80,1,12,1570,136,
16508,-16445,-1588,-3467,224,182,-80,1,22,1566,126,
16528,-16392,-1586,-3464,214,85,-60,1,12,1578,130,
16548,-16384,-1608,-3449,193,-9,-26,1,13,1567,141,
16569,-16389,-1652,-3405,179,-57,15,1,11,1577,135,
16589,-16413,-1641,-3328,152,-74,56,1,12,1572,136,
16609,-16440,-1604,-3269,119,-100,83,1,10,1570,130,
16630,-16438,-1607,-3253,121,-68,80,1,11,1571,135,
16650,-16428,-1646,-3217,173,0,38,1,15,1569,141,
16670,-16417,-1647,-3224,208,46,3,1,7,1571,129,
16691,-16471,-1626,-3158,248,81,0,1,16,1566,138,
16711,-16498,-1613,-3159,336,106,21,1,16,1572,136,
16731,-16520,-1616,-3149,457,98,39,1,16,1574,138,
16752,-16520,-1588,-3072,577,41,33,1,13,1581,129,
16772,-16480,-1590,-3012,621,-6,16,1,10,1562,138,
16792,-16445,-1598,-2954,667,58,-32,1,15,1569,137,
16813,-16406,-1563,-2882,760,192,-77,1,16,1578,130,
16833,-16386,-1468,-2820,925,325,-116,1,21,1579,137,
16853,-16372,-1404,-2793,1171,443,-151,1,8,1578,128,
16874,-16402,-1394,-2784,1459,565,-180,1,19,1569,137,
16894,-16417,-1463,-2744,1716,644,-178,1,15,1573,137,
16915,-16431,-1460,-2699,1863,610,-159,1,21,1567,133,
16935,-16412,-1447,-2645,1970,520,-164,1,14,1570,138,
16956,-16409,-1460,-2553,2035,456,-185,1,16,1570,140,
16976,-16445,-1515,-2436,2059,400,-199,1,12,1564,136,
16996,-16509,-1539,-2337,2123,361,-197,1,11,1579,135,
17017,-16604,-1543,-2197,2283,335,-175,1,13,1575,141,
17037,-16668,-1530,-2037,2565,349,-163,1,16,1570,142,
17057,-16682,-1513,-1860,2901,376,-156,1,8,1576,146,
17078,-16713,-1466,-1652,3284,388,-175,1,15,1561,141,
17098,-16723,-1359,-1513,3712,416,-249,1,21,1577,137,
17118,-16671,-1249,-1369,4072,496,-334,1,21,1577,139,
17139,-16629,-1155,-1233,4425,623,-446,1,26,1566,142,
17159,-16657,-1110,-1096,4779,784,-575,1,22,1572,144,
17179,-16661,-1126,-951,5118,938,-705,1,17,1565,143,
17200,-16633,-1130,-739,5340,1038,-798,1,22,1574,144,
17220,-16581,-1195,-509,5406,1107,-819,1,22,1564,146,
17241,-16573,-1248,-288,5409,1233,-765,1,32,1578,152,
17261,-16595,-1219,6,5455,1381,-682,1,31,1571,137,
17281,-16589,-1152,221,5613,1468,-595,1,30,1570,154,
17301,-16568,-1139,410,5877,1443,-463,1,30,1558,152,
17322,-16569,-1086,796,6184,1184,-283,1,29,1565,153,
17342,-16553,-984,1281,6420,703,-138,1,30,1566,154,
17362,-16534,-930,1743,6558,212,-67,1,27,1569,159,
17383,-16540,-883,2159,6639,-69,-63,1,28,1566,156,
17403,-16533,-845,2416,6728,15,-163,1,29,1573,161,
17424,-16477,-791,2578,6935,233,-399,1,36,1572,160,
17444,-16328,-717,2771,7149,381,-685,1,41,1573,161,
17464,-16178,-701,3089,7203,378,-894,1,36,1568,164,
17485,-16165,-728,3365,7125,352,-1018,1,34,1566,160,
17505,-16120,-757,3626,7019,423,-1028,1,37,1571,167,
17526,-16162,-856,3929,6891,429,-914,1,38,1568,168,
17546,-16262,-930,4058,6953,358,-880,1,36,1572,166,
17566,-16263,-880,4234,7153,361,-717,1,38,1570,172,
17587,-16174,-970,4571,7239,331,-442,1,39,1573,181,
17607,-16041,-838,4809,7354,324,-88,1,35,1565,179,
17627,-15863,-793,5245,7512,333,194,1,41,1567,171,
17648,-15666,-743,5672,7656,296,358,1,38,1578,188,
17668,-15476,-663,6051,7786,142,407,1,47,1579,187,
17688,-15349,-497,6516,7947,-94,396,1,40,1572,188,
17709,-15206,-410,7047,8120,-206,324,1,41,1571,199,
17729,-14943,-428,7482,8258,-52,247,1,43,1575,191,
17750,-14650,-458,7758,8352,371,112,1,43,1567,197,
17770,-14499,-481,8121,8479,904,-113,1,40,1576,188,
17790,-14468,-432,8584,8597,1331,-380,1,50,1576,198,
17811,-14353,-395,8928,8628,1559,-612,1,45,1567,189,
17831,-14175,-443,9143,8552,1648,-676,1,44,1574,208,
17851,-13953,-483,9351,8398,1768,-652,1,36,1570,202,
17872,-13617,-511,9538,8253,1996,-632,1,46,1570,208,
17892,-13273,-456,9686,8155,2245,-684,1,48,1574,204,
17912,-13029,-220,9780,8111,2176,-844,1,31,1573,213,
17933,-12870,85,10031,8162,1612,-1036,1,43,1569,207,
17953,-12801,352,10421,8294,786,-1204,1,45,1573,219,
17974,-12746,398,10841,8415,185,-1282,1,43,1565,211,
17994,-12398,279,11154,8472,191,-1281,1,50,1574,218,
18014,-12071,205,11354,8564,732,-1296,1,44,1576,224,
18035,-11846,234,11556,8747,1255,-1390,1,42,1578,226,
18055,-11638,289,11830,8869,1353,-1403,1,49,1575,231,
18075,-11314,386,12099,8905,1216,-1360,1,40,1576,228,
18096,-10907,486,12348,8911,1111,-1290,1,42,1580,228,
18116,-10530,540,12582,8911,1145,-1154,1,44,1572,236,
18136,-10204,533,12822,8954,1298,-1010,1,42,1570,230,
18157,-9934,567,13039,9046,1455,-867,1,33,1575,237,
18177,-9554,615,13144,9120,1615,-742,1,34,1580,244,
18197,-9127,691,13275,9170,1653,-665,1,39,1577,249,
18218,-8728,856,13441,9184,1441,-633,1,37,1575,245,
18238,-8252,980,13674,9129,1032,-605,1,33,1577,243,
18259,-7759,1027,13926,8936,765,-561,1,36,1574,250,
18279,-7447,1053,14160,8728,721,-517,1,33,1573,261,
18299,-7227,1217,14433,8638,723,-491,1,31,1567,255,
18320,-6973,1226,14558,8545,718,-433,1,29,1575,253,
18340,-6617,1137,14649,8349,771,-304,1,25,1581,253,
18360,-6282,1171,14750,8097,901,-159,1,33,1575,261,
18381,-5904,1246,14893,7799,1104,-34,1,35,1583,257,
18401,-5611,1328,15062,7527,1291,54,1,32,1578,272,
18422,-5367,1481,15239,7206,1371,63,1,23,1573,269,
18442,-5033,1488,15253,6782,1371,73,1,31,1573,263,
18462,-4724,1497,15199,6278,1311,130,1,24,1578,264,
18483,-4453,1610,15111,5741,1172,197,1,30,1576,266,
18503,-4178,1663,15026,5165,973,273,1,20,1576,270,
18523,-3932,1706,15378,4728,688,414,1,19,1579,271,
18544,-3711,1900,15730,4639,312,461,1,20,1584,270,
18564,-3413,1946,15758,4637,61,509,1,24,1574,270,
18584,-3135,1856,15726,4726,11,549,1,19,1573,275,
18605,-2949,1864,15653,4917,55,570,1,16,1578,276,
18625,-2830,1891,15492,5029,188,549,1,21,1581,277,
18645,-2660,1800,15608,5192,350,551,1,20,1582,284,
18666,-2539,1833,15790,5587,274,499,1,21,1575,279,
18686,-2337,1810,15621,5938,93,456,1,11,1579,269,
18706,-1988,1810,15454,6075,-48,403,1,19,1581,283,
18727,-1659,1832,15327,5970,-35,240,1,9,1577,279,
18747,-1511,1844,15212,5572,84,9,1,8,1574,288,
18768,-1380,1765,15451,5034,3,-198,1,6,1582,294,
18788,-1135,1810,15625,4452,-417,-373,1,12,1576,286,
18808,-832,1734,15820,3788,-974,-478,1,8,1580,286,
18829,-525,1597,16004,3090,-1438,-549,1,10,1578,280,
18849,-376,1483,16168,2365,-1483,-572,1,9,1575,285,
18869,-327,1418,16382,1522,-1058,-548,1,2,1576,296,
18890,-298,1352,16471,671,-450,-456,1,12,1576,292,
18910,-275,1382,16656,55,-64,-328,1,5,1579,287,
18931,-258,1454,16687,-329,0,-196,1,11,1575,293,
18951,-271,1546,16587,-512,-62,-60,1,13,1579,291,
18971,-351,1602,16419,-517,-67,64,1,4,1572,290,
18992,-435,1704,16219,-457,-102,167,1,12,1578,294,
19012,-446,1866,16127,-417,-294,224,1,4,1582,290,
19032,-425,1899,16066,-398,-517,261,1,14,1576,292,
19053,-411,1918,16058,-364,-694,305,1,5,1577,289,
19073,-424,1879,16037,-335,-799,310,1,8,1578,302,
19093,-448,1747,15949,-334,-722,307,1,6,1572,294,
19114,-505,1671,15783,-383,-505,286,1,9,1575,285,
19134,-537,1555,15710,-491,-293,273,1,8,1572,292,
19155,-524,1501,15726,-585,-246,299,1,6,1574,292,
19175,-536,1524,15721,-647,-229,294,1,5,1585,289,
19195,-597,1448,15657,-655,-82,257,1,17,1577,289,
19216,-674,1393,15463,-727,83,239,1,11,1571,291,
19236,-752,1334,15242,-919,200,275,1,10,1576,290,
19256,-821,1322,15018,-1195,309,329,1,2,1580,292,
19277,-916,1398,14807,-1431,389,337,1,11,1571,283,
19297,-974,1407,14753,-1632,340,321,1,10,1578,292,
19317,-995,1382,14896,-1733,90,336,1,14,1576,290,
19338,-1150,1403,15113,-1695,-225,336,1,4,1572,292,
19358,-1337,1334,15266,-1472,-381,332,1,10,1576,292,
19379,-1372,1258,15364,-1110,-361,338,1,15,1577,289,
19399,-1337,1279,15452,-710,-316,320,1,12,1574,290,
19419,-1337,1246,15447,-363,-330,286,1,9,1583,297,
19440,-1276,1203,15450,-161,-384,283,1,8,1582,294,
19460,-1133,1156,15554,-99,-476,294,1,11,1577,289,
19480,-1140,1116,15768,-111,-652,312,1,13,1571,297,
19501,-1218,1058,15871,-85,-857,346,1,13,1571,291,
19521,-1214,938,15900,-22,-964,355,1,19,1575,295,
19541,-1196,862,15873,55,-918,372,1,11,1563,295,
19562,-1185,833,16019,113,-788,395,1,12,1572,294,
19582,-1167,854,16288,151,-673,434,1,14,1576,296,
19603,-1132,829,16563,275,-604,440,1,12,1570,298,
19623,-1113,812,16705,441,-570,435,1,8,1566,302,
19643,-1113,841,16734,520,-514,478,1,8,1570,304,
19664,-1074,838,16747,557,-389,537,1,13,1569,305,
19684,-1016,850,16821,555,-257,561,1,9,1567,303,
19704,-973,891,16939,484,-144,568,1,13,1571,295,
19725,-837,959,17030,367,-102,559,1,12,1564,298,
19745,-754,1042,17059,224,-34,509,1,8,1566,308,
19765,-838,1090,16937,15,146,515,1,8,1564,304,
19786,-889,1068,16738,-206,352,569,1,7,1569,303,
19806,-832,1094,16495,-389,453,623,1,11,1567,305,
19827,-765,1134,16392,-542,500,640,1,10,1562,306,
19847,-768,1145,16379,-724,530,672,1,20,1576,302,
19867,-807,1215,16353,-828,515,691,1,10,1570,304,
19888,-791,1295,16388,-816,479,635,1,18,1574,308,
19908,-811,1329,16487,-735,491,547,1,9,1573,299,
19928,-955,1296,16518,-613,506,490,1,10,1568,308,
19948,-1111,1222,16438,-469,502,494,1,7,1569,297,
19969,-1144,1193,16408,-374,489,548,1,16,1568,300,
19989,-1133,1246,16392,-328,413,574,1,13,1559,303,
20010,-1200,1282,16485,-331,269,560,1,9,1561,309,
20030,-1307,1237,16615,-402,123,577,1,12,1568,306,
20051,-1351,1145,16634,-458,82,636,1,11,1577,303,
20071,-1287,1049,16650,-386,164,642,1,12,1564,312,
20091,-1229,1054,16692,-261,281,639,1,12,1562,304,
20112,-1203,1005,16638,-172,276,612,1,13,1563,297,
20132,-1122,970,16475,-119,176,593,1,10,1566,308,
20152,-939,943,16377,-129,32,619,1,16,1560,312,
20173,-833,1016,16285,-157,-174,614,1,18,1566,312,
20193,-845,1114,16200,-129,-496,535,1,19,1571,305,
20213,-855,1220,16144,-61,-879,391,1,13,1565,303,
20234,-853,1212,16159,-7,-1095,221,1,17,1563,309,
20254,-934,1177,16299,-7,-995,62,1,12,1564,304,
20275,-1130,1139,16420,-42,-618,-41,1,17,1565,301,
20295,-1277,1092,16513,-45,-127,-89,1,12,1572,304,
20315,-1387,1073,16581,-1,286,-77,1,15,1563,313,
20336,-1830,1711,17941,32,-452,-90,1,13,1569,303,
20356,-1952,1433,16980,511,-948,-229,1,12,1572,306,
20376,-1499,737,16823,603,-323,-171,1,18,1566,308,
20397,-1438,807,16514,548,385,62,1,14,1570,300,
20417,-1218,687,16205,393,642,220,1,14,1562,304,
20437,-988,592,15968,221,576,415,1,12,1572,302,
20458,-775,618,15960,74,383,540,1,14,1564,304,
20478,-870,750,15797,-68,-85,633,1,18,1564,310,
20499,-982,772,15076,-83,-814,649,1,9,1565,307,
20519,-526,451,14433,-77,-1306,534,1,16,1564,302,
20539,-1114,1483,17135,-530,-3018,390,1,14,1570,298,
20559,-1623,1881,16233,130,-5595,-22,1,20,1556,308,
20580,-779,848,17869,-64,-5543,-294,1,20,1564,310,
20600,-1132,248,16999,42,-2055,48,1,10,1572,302,
20621,-822,1039,16281,-157,-1482,92,1,15,1565,301,
20641,-1083,267,16394,-609,-1155,89,1,13,1575,301,
20661,-1335,119,16298,-429,-432,90,1,12,1576,310,
20682,-1247,59,16230,-288,-284,-75,1,13,1571,313,
20702,-1232,22,16217,-176,-126,-88,1,8,1570,304,
20722,-1157,49,16201,-107,-78,-50,1,10,1564,300,
20743,-1125,15,16194,-93,-37,22,1,9,1567,297,
20763,-1145,60,16151,-90,-11,91,1,11,1567,301,
20783,-1121,145,16147,-140,-5,141,1,18,1570,310,
20804,-1186,203,16206,-224,-32,180,1,9,1563,297,
20824,-1212,123,16184,-273,-36,200,1,21,1565,303,
20844,-1250,128,16175,-292,-4,227,1,7,1563,307,
20865,-1253,153,16179,-239,7,218,1,12,1560,298,
20885,-1219,177,16176,-142,-15,190,1,15,1569,309,
20905,-1163,167,16180,-150,-25,141,1,17,1571,311,
20926,-1246,187,16160,-128,-37,102,1,16,1564,292,
20946,-1212,167,16142,-111,-54,89,1,20,1574,304,
20967,-1271,144,16142,-125,-56,80,1,17,1573,303,
20987,-1252,113,16153,-84,-34,88,1,10,1560,304,
21007,-1219,159,16177,-79,-22,90,1,13,1565,303,
21028,-1229,160,16171,-97,-26,107,1,21,1573,299,
21048,-1231,141,16158,-70,-25,107,1,9,1563,311,
21068,-1200,142,16162,-87,-17,111,1,12,1564,306,
21088,-1229,148,16161,-71,-18,108,1,11,1571,305,
21109,-1199,147,16168,-71,-14,106,1,18,1574,300,
21129,-1225,168,16161,-86,-24,108,1,20,1568,296,
21150,-1251,122,16164,-84,-25,108,1,18,1576,306,
21170,-1254,148,16166,-84,-16,107,1,17,1565,301,
21190,-1252,153,16166,-67,-25,107,1,21,1569,303,
21211,-1219,122,16170,-67,-24,105,1,16,1564,298,
21231,-1211,144,16177,-79,-23,103,1,9,1563,307,
21251,-1220,147,16160,-90,-26,104,1,7,1567,311,
21272,-1255,132,16158,-95,-18,104,1,5,1559,295,
21292,-1258,154,16155,-77,-20,103,1,12,1568,304,
21312,-1240,145,16156,-77,-21,104,1,17,1565,303,
21333,-1230,145,16166,-77,-16,105,1,20,1570,302,
21353,-1215,145,16151,-86,-25,107,1,17,1569,309,
21374,-1225,146,16169,-88,-23,107,1,22,1566,300,
21394,-1233,158,16151,-75,-21,106,1,13,1565,297,
21414,-1243,165,16164,-80,-22,106,1,12,1568,302,
21435,-1258,152,16166,-78,-24,101,1,9,1565,303,
21455,-1248,153,16164,-79,-20,101,1,19,1575,303,
21475,-1242,160,16153,-80,-26,106,1,16,1558,306,
21496,-1237,162,16165,-80,-23,109,1,21,1569,301,
21516,-1232,158,16164,-82,-23,107,1,11,1561,305,
21536,-1229,150,16155,-80,-24,106,1,18,1576,304,
21557,-1242,144,16156,-79,-18,105,1,13,1573,303,
21577,-1256,148,16145,-75,-17,101,1,10,1562,292,
21598,-1242,144,16141,-75,-20,104,1,16,1564,304,
21618,-1244,145,16158,-73,-19,104,1,10,1570,300,
21638,-1240,143,16168,-76,-24,103,1,15,1563,297,
21659,-1240,145,16178,-78,-24,99,1,17,1565,301,
21679,-1236,144,16154,-76,-19,97,1,13,1565,303,
21699,-1247,154,16164,-76,-16,97,1,3,1567,295,
21720,-1251,135,16167,-77,-19,100,1,14,1566,300,
21740,-1261,137,16161,-80,-21,103,1,15,1567,295,
21761,-1263,141,16174,-84,-21,101,1,16,1560,302,
21781,-1261,139,16175,-80,-20,102,1,20,1564,308,
21801,-1244,142,16162,-75,-21,104,1,12,1566,302,
21822,-1247,146,16161,-76,-20,105,1,11,1569,303,
21842,-1248,160,16177,-81,-19,105,1,10,1568,308,
21862,-1238,155,16169,-83,-21,104,1,17,1571,303,
21883,-1260,155,16164,-84,-21,105,1,8,1568,304,
21903,-1261,151,16146,-78,-23,106,1,19,1573,295,
21923,-1254,148,16143,-78,-17,106,1,20,1570,300,
21933,-1248,154,16138,-79,-18,109,1,16,1570,298,
21954,-1241,139,16137,-79,-14,105,1,15,1565,305,
21974,-1243,153,16148,-85,-15,105,1,16,1576,306,
21995,-1247,139,16149,-81,-15,103,1,6,1566,312,
22015,-1238,142,16157,-79,-20,108,1,16,1568,302,
22035,-1250,153,16173,-76,-21,104,1,10,1564,306,
22056,-1248,160,16160,-76,-23,104,1,19,1563,301,
22076,-1245,150,16162,-82,-20,103,1,5,1561,299,
22096,-1247,148,16157,-77,-16,104,1,13,1567,299,
22106,-1250,146,16167,-75,-16,106,1,12,1568,310,
22127,-1245,154,16157,-73,-21,108,1,8,1566,304,
22147,-1247,150,16146,-76,-22,103,1,15,1571,299,
22168,-1244,152,16147,-77,-18,104,1,19,1565,309,
22188,-1245,145,16156,-76,-22,103,1,12,1560,304,
22208,-1241,145,16154,-77,-21,103,1,17,1571,307,
22229,-1251,149,16165,-77,-20,105,1,15,1565,305,
22249,-1247,139,16171,-80,-21,107,1,15,1567,305,
22269,-1241,143,16178,-81,-21,103,1,13,1567,301,
22290,-1235,144,16175,-81,-25,105,1,13,1573,305,
22310,-1243,151,16175,-83,-25,108,1,16,1564,306,
22331,-1245,155,16166,-76,-18,103,1,11,1567,305,
22351,-1244,150,16176,-76,-19,107,1,21,1559,307,
22371,-1244,146,16180,-77,-17,107,1,15,1569,297,
22392,-1249,149,16178,-79,-22,107,1,26,1566,302,
22412,-1250,134,16171,-77,-21,106,1,14,1566,304,
22432,-1238,152,16164,-80,-12,103,1,20,1566,300,
22453,-1226,149,16161,-77,-22,106,1,15,1565,297,
22473,-1240,135,16155,-78,-22,103,1,20,1566,306,
22493,-1251,161,16135,-76,-18,107,1,12,1570,308,
22514,-1250,157,16145,-80,-21,108,1,9,1569,303,
22534,-1255,159,16165,-82,-20,106,1,7,1569,301,
22555,-1245,158,16168,-75,-22,104,1,14,1572,304,
22575,-1240,150,16176,-79,-25,102,1,19,1563,297,
22595,-1245,144,16160,-79,-28,107,1,12,1578,304,
22616,-1232,146,16176,-78,-23,104,1,19,1565,311,
22636,-1247,150,16161,-84,-24,101,1,19,1573,295,
22656,-1246,136,16172,-77,-25,103,1,10,1564,308,
22677,-1250,149,16179,-80,-15,101,1,7,1569,301,
22697,-1250,169,16179,-76,-15,101,1,9,1567,301,
22717,-1236,156,16174,-74,-23,108,1,15,1569,307,
22738,-1232,157,16163,-79,-24,105,1,11,1563,299,
22758,-1226,161,16140,-72,-21,106,1,14,1564,300,
22779,-1234,147,16137,-76,-22,106,1,17,1563,301,
22799,-1246,152,16152,-75,-16,105,1,17,1565,301,
22819,-1245,161,16140,-75,-17,104,1,12,1566,308,
22840,-1247,146,16149,-81,-25,99,1,12,1572,302,
22860,-1246,147,16147,-73,-20,104,1,18,1566,296,
22880,-1238,167,16164,-77,-22,101,1,14,1568,302,
22901,-1237,158,16176,-77,-24,103,1,15,1551,303,
22921,-1237,165,16183,-71,-19,103,1,4,1568,298,
22941,-1251,156,16171,-80,-23,104,1,21,1571,307,
22962,-1266,140,16179,-74,-22,104,1,7,1565,303,
22982,-1261,164,16162,-78,-21,106,1,18,1562,306,
23003,-1257,146,16151,-76,-27,108,1,11,1569,305,
23023,-1243,142,16158,-75,-15,106,1,12,1562,296,
23043,-1233,162,16149,-78,-18,107,1,17,1567,299,
23064,-1243,133,16151,-81,-24,106,1,14,1556,302,
23084,-1248,142,16160,-77,-14,105,1,8,1560,304,
23104,-1247,149,16167,-75,-22,108,1,13,1569,305,
23124,-1249,148,16160,-74,-23,104,1,16,1568,304,
23145,-1245,150,16166,-71,-24,108,1,18,1568,306,
23165,-1247,146,16173,-79,-27,110,1,12,1566,306,
23186,-1254,144,16171,-75,-20,103,1,14,1570,296,
23206,-1245,154,16156,-83,-21,104,1,18,1564,306,
23226,-1250,152,16171,-85,-20,103,1,18,1574,304,
23247,-1242,138,16161,-79,-19,103,1,13,1571,305,
23267,-1232,151,16162,-79,-18,105,1,13,1571,313,
23287,-1231,143,16177,-78,-19,104,1,11,1581,305,
23308,-1225,144,16170,-77,-19,107,1,11,1567,303,
23328,-1224,144,16155,-78,-22,110,1,12,1566,308,
23348,-1239,150,16151,-75,-25,109,1,15,1569,305,
23369,-1242,148,16165,-79,-21,106,1,8,1570,306,
23389,-1241,149,16151,-80,-24,106,1,13,1569,305,
23410,-1239,157,16161,-76,-22,105,1,10,1568,312,
23430,-1239,155,16173,-84,-22,102,1,16,1566,304,
23450,-1244,148,16169,-80,-21,105,1,9,1565,293,
23470,-1245,154,16160,-78,-21,99,1,11,1571,309,
23491,-1253,158,16167,-79,-24,103,1,9,1563,305,
23511,-1248,145,16176,-82,-20,103,1,14,1572,302,
23531,-1245,146,16162,-79,-21,103,1,16,1566,306,
23552,-1243,150,16168,-77,-23,103,1,23,1561,311,
23572,-1240,148,16163,-79,-17,105,1,4,1568,304,
23593,-1243,146,16158,-74,-16,105,1,16,1570,304,
23613,-1245,145,16167,-76,-16,108,1,10,1564,310,
23633,-1251,149,16171,-76,-26,108,1,13,1571,307,
23654,-1261,151,16166,-78,-26,107,1,19,1569,313,
23674,-1251,145,16167,-81,-23,108,1,14,1564,304,
23694,-1245,140,16169,-79,-24,109,1,17,1565,307,
23714,-1241,154,16168,-75,-25,111,1,10,1568,306,
23735,-1254,154,16168,-76,-22,110,1,16,1576,302,
23755,-1245,143,16155,-77,-18,107,1,17,1573,305,
23776,-1246,145,16150,-78,-20,104,1,19,1563,299,
23796,-1248,153,16165,-78,-23,103,1,17,1563,295,
23816,-1238,147,16155,-80,-24,106,1,15,1567,301,
23837,-1244,137,16148,-78,-26,106,1,13,1575,303,
23857,-1240,143,16147,-77,-26,108,1,9,1567,293,
23877,-1236,147,16149,-78,-26,106,1,17,1563,295,
23898,-1245,150,16151,-78,-30,106,1,13,1563,295,
23918,-1254,154,16148,-77,-26,109,1,15,1569,301,
23938,-1256,151,16135,-77,-25,109,1,8,1566,302,
23959,-1244,135,16144,-78,-27,104,1,16,1564,304,
23979,-1250,154,16154,-79,-21,104,1,14,1570,304,
24000,-1256,155,16154,-80,-27,103,1,24,1564,298,
24020,-1254,152,16164,-78,-23,103,1,10,1568,312,
24040,-1244,159,16155,-78,-21,104,1,10,1568,306,
24060,-1245,157,16148,-75,-25,106,1,17,1567,307,
24081,-1243,167,16163,-75,-25,107,1,15,1571,297,
24101,-1237,177,16176,-76,-28,109,1,16,1572,300,
24121,-1235,153,16175,-75,-30,109,1,15,1567,297,
24142,-1232,151,16175,-78,-23,107,1,13,1567,303,
24162,-1232,154,16155,-79,-22,107,1,13,1561,299,
24183,-1236,147,16157,-79,-17,107,1,11,1571,297,
24203,-1225,153,16167,-78,-18,110,1,15,1569,301,
24223,-1242,159,16178,-79,-18,112,1,11,1565,303,
24244,-1238,161,16190,-73,-21,107,1,13,1571,303,
24264,-1230,148,16190,-77,-20,109,1,14,1562,298,
24284,-1229,150,16169,-75,-21,108,1,13,1573,307,
24305,-1234,151,16164,-76,-22,112,1,22,1568,300,
24325,-1233,159,16161,-82,-20,110,1,14,1570,298,
24345,-1246,152,16152,-81,-18,105,1,11,1563,297,
24366,-1244,157,16141,-81,-19,105,1,8,1568,302,
24386,-1238,147,16164,-80,-21,106,1,12,1570,300,
24407,-1244,136,16154,-78,-20,106,1,15,1565,303,
24427,-1238,139,16158,-79,-19,106,1,11,1565,305,
24447,-1246,143,16166,-85,-19,107,1,13,1569,303,
24467,-1243,143,16161,-83,-18,108,1,16,1574,302,
24488,-1244,152,16162,-82,-16,107,1,10,1576,304,
24508,-1237,151,16163,-79,-21,104,1,14,1566,302,
24518,-1230,148,16168,-79,-25,104,1,12,1574,300,
24539,-1224,141,16157,-82,-18,106,1,10,1566,314,
24559,-1233,164,16150,-80,-17,108,1,18,1566,304,
24579,-1249,148,16158,-79,-24,105,1,13,1567,305,
24600,-1257,150,16157,-84,-19,105,1,19,1571,301,
24620,-1256,162,16167,-80,-25,106,1,10,1564,302,
24640,-1257,141,16160,-76,-27,109,1,15,1567,305,
