t,ax,ay,az,gx,gy,gz,mag_valid,mx,my,mz,
18278,-1576,331,16146,-69,-25,107,1,17,1567,305,
18298,-1572,322,16150,-75,-29,109,1,18,1570,292,
18319,-1584,346,16151,-83,-12,106,1,26,1566,300,
5017,-1596,344,16138,-77,-18,105,1,23,1567,303,
5027,-1593,338,16152,-79,-19,107,1,23,1561,297,
5037,-1598,342,16156,-81,-22,103,1,24,1564,298,
5047,-1596,336,16161,-81,-20,104,1,26,1566,304,
5057,-1597,342,16154,-81,-22,105,1,21,1573,301,
5067,-1601,341,16159,-81,-24,107,1,23,1563,301,
5077,-1595,344,16161,-80,-22,105,1,22,1564,302,
5087,-1596,346,16151,-79,-21,106,1,24,1564,296,
5097,-1598,346,16148,-82,-19,102,1,16,1566,300,
5107,-1587,348,16150,-82,-21,103,1,19,1569,299,
5117,-1586,348,16148,-80,-24,105,1,13,1563,291,
5127,-1576,342,16147,-81,-24,108,1,26,1572,302,
5137,-1582,348,16151,-79,-21,110,1,17,1559,299,
5147,-1584,347,16159,-77,-20,110,1,23,1565,295,
5157,-1588,336,16162,-78,-22,109,1,24,1562,298,
5167,-1589,333,16157,-79,-20,111,1,19,1569,297,
5177,-1587,341,16158,-77,-21,106,1,22,1562,296,
5187,-1582,342,16158,-78,-21,107,1,19,1559,297,
5197,-1587,343,16160,-78,-22,107,1,22,1562,292,
5207,-1589,345,16159,-81,-25,108,1,24,1566,296,
5217,-1587,344,16151,-81,-27,109,1,22,1560,302,
5227,-1585,345,16146,-80,-26,109,1,23,1563,295,
5237,-1583,351,16135,-76,-30,110,1,18,1560,302,
5247,-1581,359,16137,-79,-24,112,1,27,1571,295,
5257,-1587,352,16140,-77,-24,108,1,20,1570,300,
5267,-1582,344,16148,-77,-23,108,1,28,1566,294,
5277,-1580,341,16146,-78,-22,105,1,18,1560,308,
5287,-1581,344,16158,-79,-24,106,1,18,1560,300,
5298,-1580,346,16146,-74,-19,109,1,18,1568,312,
5308,-1582,345,16143,-73,-20,108,1,21,1569,301,
5318,-1591,343,16147,-72,-22,110,1,27,1563,299,
5328,-1595,343,16146,-73,-22,113,1,16,1566,298,
5338,-1588,345,16145,-73,-23,112,1,22,1564,298,
5349,-1585,350,16148,-74,-21,108,1,15,1565,301,
5359,-1593,348,16155,-76,-21,108,1,23,1569,299,
5369,-1590,348,16145,-76,-23,106,1,26,1564,302,
5379,-1583,345,16134,-75,-22,108,1,17,1561,293,
5389,-1584,340,16137,-73,-21,107,1,20,1562,300,
5399,-1592,340,16139,-74,-18,106,1,25,1565,299,
5410,-1595,336,16143,-74,-20,107,1,19,1565,303,
5420,-1591,339,16136,-79,-21,108,1,24,1566,304,
5430,-1592,332,16144,-79,-23,108,1,11,1561,295,
5440,-1581,337,16147,-76,-21,111,1,15,1571,301,
5450,-1580,332,16135,-78,-23,105,1,21,1565,301,
5461,-1577,331,16132,-77,-24,106,1,24,1562,300,
5471,-1582,335,16139,-75,-22,107,1,22,1566,306,
5481,-1588,349,16148,-70,-24,107,1,19,1571,303,
5491,-1586,346,16155,-73,-21,109,1,31,1563,297,
5501,-1577,351,16153,-77,-18,110,1,16,1564,302,
5511,-1578,350,16142,-79,-21,107,1,21,1561,309,
5521,-1579,355,16130,-77,-22,111,1,21,1571,305,
5532,-1583,361,16129,-78,-23,111,1,23,1563,303,
5542,-1582,365,16140,-74,-23,111,1,26,1564,304,
5552,-1580,367,16133,-76,-20,111,1,16,1568,300,
5562,-1580,358,16123,-81,-18,108,1,19,1563,303,
5573,-1584,352,16129,-82,-19,108,1,18,1560,294,
5583,-1583,355,16139,-82,-17,108,1,20,1568,296,
5593,-1579,357,16144,-82,-20,106,1,20,1566,304,
5603,-1582,359,16150,-82,-20,106,1,21,1573,295,
5613,-1580,365,16147,-78,-18,106,1,16,1564,298,
5623,-1581,349,16138,-75,-18,105,1,24,1564,304,
5644,-1575,348,16144,-73,-18,110,1,18,1566,300,
5664,-1581,342,16159,-79,-17,109,1,22,1564,306,
5685,-1582,361,16149,-81,-19,106,1,19,1565,301,
5705,-1583,346,16143,-81,-22,98,1,25,1565,299,
5725,-1585,345,16150,-75,-24,100,1,16,1564,298,
5745,-1583,343,16137,-77,-25,106,1,22,1564,298,
5766,-1598,353,16160,-79,-23,105,1,20,1562,300,
5786,-1590,351,16163,-78,-22,106,1,22,1564,304,
5807,-1584,345,16147,-77,-20,110,1,21,1561,295,
5827,-1592,346,16134,-80,-20,109,1,21,1557,301,
5847,-1591,348,16127,-77,-22,106,1,27,1561,295,
5868,-1590,348,16137,-78,-21,105,1,20,1558,298,
5888,-1582,344,16142,-75,-23,107,1,26,1560,300,
5908,-1584,343,16134,-71,-23,110,1,18,1562,304,
5929,-1591,342,16130,-73,-21,107,1,21,1561,299,
5949,-1597,346,16136,-73,-22,107,1,13,1565,297,
5970,-1591,339,16137,-76,-19,108,1,22,1562,300,
5990,-1593,354,16144,-75,-21,105,1,21,1563,299,
6010,-1592,348,16141,-78,-24,107,1,16,1568,298,
6030,-1592,344,16153,-80,-21,105,1,28,1564,298,
6051,-1584,342,16150,-83,-21,107,1,30,1566,304,
6071,-1580,342,16141,-79,-21,105,1,26,1562,296,
6091,-1587,347,16149,-78,-21,106,1,20,1562,298,
6112,-1590,350,16156,-82,-22,103,1,19,1565,301,
6132,-1591,348,16154,-80,-18,104,1,23,1563,301,
6153,-1583,347,16155,-80,-18,99,1,19,1569,289,
6173,-1587,340,16151,-82,-16,103,1,18,1562,294,
6193,-1592,339,16169,-83,-17,102,1,17,1569,303,
6213,-1589,339,16145,-84,-19,106,1,20,1572,302,
6234,-1577,338,16152,-82,-21,106,1,20,1560,306,
6254,-1592,352,16162,-83,-21,109,1,22,1570,294,
6275,-1589,352,16158,-80,-17,111,1,17,1561,309,
6295,-1595,355,16150,-78,-16,111,1,17,1559,293,
6315,-1596,347,16160,-77,-17,109,1,23,1567,289,
6336,-1584,345,16147,-82,-20,107,1,13,1559,301,
6356,-1578,348,16149,-79,-21,102,1,28,1562,296,
6376,-1576,354,16149,-78,-20,107,1,22,1564,308,
6397,-1582,356,16132,-81,-20,107,1,23,1563,293,
6417,-1614,381,16176,-37,-56,79,1,26,1558,294,
6438,-1569,305,16119,-28,-62,104,1,25,1569,311,
6458,-1571,297,16110,-89,-6,101,1,19,1569,301,
6478,-1606,356,16143,-96,-10,98,1,25,1561,303,
6498,-1581,329,16104,-70,-25,111,1,22,1566,296,
6519,-1573,300,16118,-156,52,127,1,18,1568,300,
6539,-1658,432,16188,-129,31,99,1,27,1571,299,
6560,-1623,387,16172,-20,-67,105,1,19,1567,301,
6580,-1533,292,16123,-21,-52,108,1,20,1562,308,
6600,-1597,329,16162,-49,-22,118,1,24,1566,296,
6621,-1572,401,16165,35,-78,135,1,21,1569,305,
6641,-1570,314,16100,22,-110,112,1,20,1562,302,
6661,-1550,285,16094,-39,-38,120,1,16,1568,304,
6671,-1564,325,16136,-58,-14,110,1,23,1565,297,
6692,-1555,361,16174,-83,-31,102,1,19,1563,295,
6712,-1549,298,16151,-135,5,102,1,22,1566,300,
6733,-1622,361,16164,-137,22,107,1,25,1565,299,
6753,-1585,350,16146,-86,-22,100,1,22,1572,298,
6773,-1642,402,16172,-12,-48,82,1,25,1565,301,
6793,-1625,411,16189,71,-149,98,1,22,1554,306,
6814,-1536,254,16124,26,-164,120,1,22,1556,300,
6834,-1567,263,16121,-56,-43,109,1,19,1561,303,
6855,-1661,390,16196,67,-79,153,1,13,1563,299,
6875,-1583,296,16118,159,-120,190,1,17,1565,303,
6895,-1477,243,16154,214,-48,174,1,24,1566,302,
6916,-1484,265,16173,265,-38,197,1,23,1567,299,
6936,-1445,374,16185,316,-71,173,1,23,1563,297,
6957,-1403,325,16181,292,-81,186,1,22,1552,302,
6977,-1441,276,16184,234,-89,255,1,22,1556,310,
6997,-1580,272,16196,319,-76,464,1,27,1561,305,
7017,-1601,358,16254,488,-74,806,1,28,1554,298,
7038,-1482,354,16284,679,71,833,1,22,1554,308,
7058,-1412,226,16262,823,87,621,1,28,1560,296,
7078,-1338,160,16365,906,290,398,1,22,1560,306,
7099,-1166,322,16241,996,721,191,1,21,1559,305,
7119,-898,271,16068,720,685,-58,1,17,1555,313,
7140,-1009,29,16638,565,1398,-336,1,21,1563,309,
7160,-1130,-154,16910,670,2877,-631,1,20,1568,304,
7180,-1151,30,16941,899,4505,-912,1,20,1564,306,
7201,-1114,429,17015,1045,5827,-1082,1,19,1569,303,
7221,-1092,1019,17072,886,6446,-1061,1,27,1563,307,
7241,-1096,1640,16934,493,6386,-860,1,13,1565,307,
7262,-1083,2176,16740,80,5741,-487,1,15,1565,297,
7282,-1114,2502,16670,-217,4716,-303,1,20,1572,304,
7302,-1218,2650,16558,-410,3432,-296,1,19,1565,305,
7323,-1300,2713,16417,-485,2045,-310,1,30,1564,300,
7343,-1329,2795,16472,-423,978,-320,1,19,1567,299,
7363,-1309,2658,16700,-305,443,-384,1,19,1567,301,
7384,-1270,2486,16802,-227,568,-436,1,16,1572,304,
7404,-1227,2410,16765,-165,1273,-529,1,13,1565,301,
7424,-1182,2373,16678,-28,2471,-654,1,21,1567,297,
7445,-1092,2492,16576,63,3772,-711,1,16,1572,292,
7465,-1054,2781,16472,44,4991,-729,1,19,1573,303,
7485,-1036,3152,16370,27,5923,-705,1,23,1579,295,
7506,-1024,3444,16217,35,6519,-640,1,24,1576,296,
7526,-956,3686,16059,7,6827,-633,1,25,1583,295,
7547,-932,3977,15886,-2,6966,-683,1,9,1579,285,
7567,-935,4285,15741,73,7021,-706,1,19,1575,285,
7587,-885,4580,15624,128,7067,-676,1,28,1586,294,
7608,-819,4825,15527,127,7190,-612,1,19,1583,291,
7628,-832,4982,15395,70,7322,-621,1,19,1585,287,
7648,-888,5203,15352,24,7389,-666,1,26,1586,286,
7669,-943,5498,15221,132,7395,-637,1,30,1584,280,
7689,-893,5786,15066,268,7405,-601,1,24,1592,278,
7709,-865,6036,14825,385,7340,-575,1,20,1590,282,
7730,-778,6357,14610,491,7256,-570,1,18,1588,278,
7750,-709,6692,14265,627,7169,-593,1,20,1596,278,
7770,-656,6983,13940,780,7020,-636,1,20,1598,278,
7791,-593,7320,13811,886,6698,-704,1,22,1600,276,
7811,-534,7748,13805,1051,6309,-809,1,23,1589,275,
7832,-443,7918,13758,1188,6128,-914,1,24,1594,272,
7852,-301,8008,13547,1247,6184,-938,1,23,1597,277,
7873,-168,8172,13290,1219,6484,-893,1,21,1599,273,
7893,-50,8377,13117,1173,6994,-841,1,19,1597,267,
7913,14,8621,12923,1122,7593,-808,1,19,1603,261,
7933,30,8951,12688,1097,8195,-744,1,17,1601,263,
7954,53,9294,12506,1091,8610,-647,1,22,1610,272,
7974,91,9655,12349,1086,8833,-543,1,26,1606,266,
7995,162,9988,12144,1055,8881,-456,1,21,1601,263,
8015,230,10288,11850,1025,8778,-437,1,21,1611,267,
8035,244,10635,11588,1045,8641,-510,1,16,1606,258,
8056,293,10912,11382,1042,8585,-607,1,14,1606,262,
8076,291,11139,11059,990,8599,-702,1,17,1619,261,
8096,264,11399,10754,908,8579,-767,1,13,1609,259,
8117,242,11671,10562,850,8496,-799,1,18,1604,252,
8137,275,11992,10404,843,8483,-887,1,15,1613,241,
8157,303,12295,10181,878,8510,-1058,1,20,1612,244,
8178,377,12619,9930,906,8473,-1130,1,20,1608,248,
8198,479,12868,9607,856,8361,-1206,1,22,1618,240,
8219,565,13119,9362,810,8274,-1270,1,15,1617,249,
8239,642,13378,9137,688,8126,-1353,1,17,1623,245,
8259,695,13714,8855,583,7905,-1282,1,15,1615,243,
8280,734,13868,8519,485,7588,-1157,1,16,1616,242,
8300,743,13890,8083,379,7056,-947,1,10,1622,238,
8320,794,13957,7638,245,6276,-724,1,14,1616,232,
8341,866,14112,7268,120,5507,-651,1,15,1627,235,
8361,946,14229,7158,49,5027,-740,1,16,1618,234,
8381,990,14304,7008,37,4835,-828,1,16,1618,230,
8402,1042,14326,6797,30,4755,-892,1,21,1623,239,
8422,1149,14396,6651,28,4721,-914,1,16,1620,236,
8442,1254,14521,6507,1,4811,-907,1,22,1622,230,
8463,1323,14628,6392,-38,5039,-828,1,18,1616,224,
8483,1389,14650,6234,-126,5264,-606,1,21,1617,233,
8503,1436,14697,5986,-239,5398,-297,1,26,1620,224,
8524,1465,14812,5727,-332,5383,-37,1,15,1621,217,
8544,1468,15041,5598,-382,5330,118,1,12,1618,228,
8564,1427,15223,5501,-349,5439,179,1,30,1622,218,
8585,1379,15316,5322,-303,5623,228,1,23,1619,219,
8605,1310,15345,4986,-247,5660,269,1,18,1624,218,
8625,1271,15397,4610,-152,5505,273,1,18,1628,216,
8646,1305,15495,4351,-93,5293,188,1,17,1613,217,
8666,1323,15523,4108,-122,5079,83,1,19,1617,215,
8686,1340,15474,3784,-203,4850,76,1,18,1618,212,
8707,1321,15400,3513,-284,4639,95,1,17,1613,209,
8727,1299,15376,3322,-314,4565,82,1,20,1612,212,
8748,1320,15408,3139,-306,4574,70,1,16,1614,210,
8768,1300,15415,2946,-311,4437,-40,1,16,1616,212,
8788,1325,15517,2781,-250,4180,-110,1,20,1628,210,
8809,1402,15614,2751,-227,3941,-104,1,22,1614,212,
8829,1410,15648,2554,-226,3713,-31,1,22,1616,204,
8849,1409,15643,2423,-209,3489,24,1,24,1622,206,
8870,1381,15626,2274,-160,3190,62,1,17,1617,205,
8890,1385,15587,2151,-123,2986,44,1,19,1613,209,
8910,1396,15584,1983,-84,2914,-25,1,21,1617,205,
8931,1386,15613,1801,-49,2776,-72,1,23,1617,205,
8951,1389,15713,1714,-26,2491,-92,1,22,1616,204,
8971,1408,15757,1706,-16,2291,-123,1,20,1612,202,
8992,1428,15792,1629,-10,2294,-196,1,16,1618,202,
9012,1401,15839,1501,11,2390,-208,1,27,1617,207,
9033,1398,15930,1436,-10,2501,-200,1,26,1612,194,
9053,1362,16014,1251,-11,2474,-207,1,24,1614,200,
9073,1390,16076,1186,-21,2493,-264,1,16,1620,198,
9093,1365,16102,1038,-71,2565,-317,1,25,1621,199,
9114,1331,16121,887,-109,2558,-388,1,22,1612,196,
9134,1340,16119,804,-146,2456,-442,1,24,1618,196,
9155,1391,16142,710,-203,2445,-477,1,30,1614,198,
9175,1418,16168,595,-265,2561,-527,1,24,1618,200,
9195,1394,16130,438,-296,2673,-579,1,18,1620,198,
9216,1409,16128,322,-315,2502,-596,1,15,1617,191,
9236,1435,16146,205,-360,2130,-622,1,24,1612,190,
9256,1478,16122,110,-384,1768,-627,1,20,1614,196,
9277,1539,16092,91,-387,1436,-545,1,16,1610,192,
9297,1555,16024,66,-376,1156,-435,1,16,1620,196,
9317,1617,16004,9,-333,977,-320,1,16,1620,194,
9338,1702,16035,-94,-311,881,-269,1,20,1620,196,
9358,1725,16049,-175,-304,831,-281,1,14,1620,192,
9379,1765,16047,-183,-294,807,-316,1,16,1610,198,
9399,1829,16013,-212,-290,896,-373,1,16,1618,192,
9419,1859,16000,-201,-319,1024,-381,1,16,1612,194,
9440,1849,16022,-298,-357,895,-339,1,15,1619,189,
9460,1838,16047,-318,-358,621,-322,1,23,1623,191,
9480,1858,16003,-309,-318,327,-273,1,26,1620,190,
9501,1896,15995,-299,-287,123,-231,1,25,1619,193,
9521,1910,15966,-283,-261,4,-193,1,14,1622,198,
9541,1924,15947,-326,-250,-141,-143,1,29,1623,189,
9562,1911,15907,-313,-247,-338,-81,1,20,1616,190,
9582,1916,15938,-290,-262,-566,-23,1,24,1618,188,
9602,1924,15967,-251,-277,-679,14,1,19,1621,191,
9623,1931,15964,-157,-300,-651,26,1,26,1620,182,
9643,1938,15959,-106,-323,-594,-1,1,21,1619,201,
9664,1878,15949,-75,-351,-597,-103,1,16,1620,186,
9684,1861,15936,-66,-338,-639,-205,1,13,1619,193,
9704,1900,15894,-43,-275,-627,-257,1,21,1615,191,
9725,1869,15723,51,-298,-555,-441,1,21,1621,193,
9745,1957,15802,108,-265,-361,-569,1,16,1612,188,
9765,1968,15976,69,-228,-349,-625,1,20,1622,192,
9785,2089,16185,108,-185,-645,-461,1,14,1620,190,
9806,2155,16320,154,-189,-1233,-156,1,26,1616,188,
9826,2140,16282,210,-241,-1710,-26,1,11,1625,193,
9847,2147,16169,334,-230,-1896,49,1,19,1625,191,
9867,2139,16107,426,-223,-1957,135,1,14,1622,194,
9887,2084,16032,524,-205,-1977,217,1,24,1624,196,
9908,2094,15970,557,-209,-2000,289,1,16,1616,194,
9928,2078,15955,558,-212,-2056,283,1,13,1619,189,
9948,2031,15959,624,-216,-2290,260,1,13,1617,197,
9969,2015,15963,690,-252,-2714,261,1,18,1620,198,
9989,2042,15992,770,-322,-3178,240,1,17,1613,191,
10009,2095,16087,927,-408,-3380,165,1,14,1614,190,
10030,2089,16149,1138,-455,-3273,59,1,18,1616,198,
10050,2054,16190,1378,-454,-3042,-8,1,23,1617,203,
10070,2024,16217,1540,-421,-2896,10,1,18,1622,202,
10091,2020,16215,1651,-366,-2903,44,1,14,1624,200,
10111,2017,16177,1726,-291,-3098,92,1,19,1623,205,
10131,2019,16089,1864,-221,-3311,151,1,18,1618,204,
10152,2049,15958,2038,-142,-3359,228,1,18,1614,208,
10172,2093,15891,2232,-60,-3244,289,1,16,1626,212,
10192,2107,15872,2418,3,-3126,322,1,15,1619,209,
10213,2082,15812,2549,46,-3161,376,1,18,1624,200,
10233,2020,15776,2640,57,-3419,453,1,9,1619,205,
10253,1896,15853,2718,88,-3738,439,1,21,1621,211,
10274,1885,15860,2913,120,-3995,370,1,10,1628,214,
10294,1953,15768,3138,117,-4136,310,1,12,1618,206,
10314,1993,15687,3299,142,-4075,246,1,16,1618,208,
10335,2065,15621,3428,174,-3857,199,1,23,1619,219,
10355,2182,15541,3523,134,-3683,250,1,16,1622,212,
10376,2210,15421,3634,-5,-3849,443,1,21,1617,213,
10396,2117,15312,3690,-212,-4418,712,1,15,1623,211,
10416,1963,15327,3830,-376,-5172,942,1,13,1619,221,
10437,1851,15322,4159,-464,-5849,1048,1,10,1622,224,
10457,1795,15219,4426,-468,-6491,1121,1,27,1615,221,
10477,1767,15071,4802,-449,-7058,1136,1,21,1623,217,
10498,1762,14933,5148,-508,-7487,1220,1,15,1619,229,
10518,1703,14821,5443,-619,-7761,1368,1,16,1626,224,
10538,1589,14769,5737,-709,-7854,1425,1,13,1623,233,
10559,1455,14718,6123,-698,-7889,1366,1,15,1627,223,
10579,1366,14616,6556,-564,-7805,1263,1,12,1620,228,
10599,1414,14481,6979,-413,-7423,1135,1,13,1617,237,
10619,1413,14205,7168,-379,-6859,1147,1,14,1616,226,
10640,1387,13970,7334,-385,-6232,1254,1,17,1619,239,
10660,1325,13694,7565,-361,-5688,1492,1,17,1619,231,
10681,1119,13403,7773,-335,-5281,1853,1,21,1621,233,
10701,955,13212,7918,-323,-4855,2333,1,16,1606,242,
10721,909,13069,8092,-288,-4316,2799,1,18,1614,244,
10742,924,13176,8162,-291,-3697,3172,1,20,1606,230,
10762,1056,13845,8319,-267,-3344,3070,1,22,1614,240,
10782,1087,14468,8516,-175,-3276,2358,1,19,1611,247,
10803,867,14424,8753,-36,-3345,1478,1,25,1611,235,
10823,820,13996,8932,35,-3415,919,1,22,1614,236,
10843,725,13782,8961,158,-3652,553,1,17,1619,247,
10864,629,13656,8957,321,-4094,230,1,20,1612,252,
10884,585,13404,9096,346,-4612,-19,1,24,1612,250,
10904,617,13156,9286,190,-5094,-77,1,20,1612,248,
10925,625,12930,9483,-57,-5465,-44,1,20,1608,252,
10945,600,12748,9673,-234,-5673,-3,1,23,1619,245,
10966,543,12612,9834,-309,-5847,6,1,16,1612,256,
10986,524,12417,10065,-257,-6127,-40,1,16,1604,254,
11006,608,12240,10365,-245,-6516,-44,1,19,1619,249,
11026,652,12055,10652,-324,-6866,-38,1,13,1609,255,
11047,654,11801,10890,-422,-7090,-38,1,22,1610,264,
11067,643,11551,11050,-474,-7219,-50,1,14,1614,254,
11087,651,11334,11295,-544,-7278,-56,1,20,1606,256,
11108,600,11064,11573,-649,-7168,-38,1,24,1600,262,
11128,534,10807,12005,-675,-6837,-46,1,22,1606,258,
11148,513,10539,12283,-610,-6472,-74,1,11,1597,257,
11169,470,10338,12386,-601,-6328,23,1,16,1608,266,
11189,361,10196,12494,-705,-6506,253,1,13,1597,257,
11209,274,10059,12705,-802,-6884,448,1,19,1601,273,
11230,357,9845,12964,-755,-7437,470,1,19,1597,259,
11250,417,9507,13228,-607,-8127,401,1,13,1599,269,
11270,406,9121,13666,-396,-8721,339,1,19,1599,277,
11291,449,8574,14119,-127,-8840,351,1,18,1596,278,
11311,495,8083,14077,48,-8440,484,1,18,1598,278,
11331,501,7907,13868,25,-7569,613,1,16,1598,272,
11352,477,7898,13693,-111,-6459,581,1,20,1590,270,
11372,456,7880,13793,-320,-5169,424,1,25,1591,283,
11393,373,7733,14031,-501,-3814,169,1,13,1585,275,
11413,258,7519,14256,-560,-2894,-38,1,21,1593,273,
11433,206,7251,14345,-507,-2613,-70,1,23,1589,283,
11454,331,6998,14341,-445,-3004,63,1,16,1594,276,
11474,512,6873,14278,-501,-4046,240,1,19,1591,277,
11494,626,6832,14429,-576,-5432,210,1,14,1584,278,
11515,758,6663,14789,-588,-6880,39,1,15,1585,277,
11535,791,6224,15535,-430,-7923,-191,1,18,1584,290,
11555,805,5599,15982,-135,-8170,-290,1,9,1587,281,
11576,759,5184,15765,70,-7756,-235,1,20,1592,288,
11596,618,5033,15375,46,-6746,-106,1,18,1588,286,
11616,474,4939,15210,-169,-5308,-36,1,25,1581,283,
11637,246,4899,15281,-457,-3599,-19,1,16,1578,286,
11657,-2,4833,15386,-649,-2227,7,1,16,1576,288,
11677,-84,4696,15397,-769,-1411,173,1,17,1587,287,
11698,-207,4618,15265,-869,-1202,530,1,13,1589,287,
11718,-125,4711,15059,-954,-1336,882,1,22,1582,286,
11738,-221,4866,14929,-1091,-1580,1073,1,9,1577,287,
11758,-398,4976,15068,-1021,-1742,1056,1,13,1585,279,
11779,-517,5013,15242,-794,-1936,922,1,19,1579,289,
11799,-460,4876,15391,-634,-2292,798,1,20,1582,282,
11820,-381,4607,15578,-535,-2709,729,1,24,1582,286,
11840,-429,4402,15533,-482,-3227,633,1,21,1577,285,
11860,-632,4411,15248,-517,-3822,440,1,12,1576,282,
11881,-755,4214,15294,-488,-4215,130,1,21,1577,285,
11901,-604,3670,15486,-289,-4241,-58,1,23,1577,291,
11921,-325,3178,15501,-169,-3967,-83,1,18,1582,284,
11942,-122,2888,15530,-148,-3443,17,1,18,1578,284,
11962,-37,2783,15617,-160,-2766,122,1,20,1568,280,
11982,69,2719,15710,-137,-2181,230,1,11,1573,289,
12002,105,2569,15920,-120,-1870,342,1,21,1573,287,
12023,56,2389,15985,-102,-2033,537,1,21,1577,289,
12043,97,2399,15878,-264,-2754,759,1,25,1573,283,
12064,56,2487,15700,-589,-3580,908,1,21,1571,291,
12084,-1,2504,15648,-894,-4181,938,1,23,1575,289,
12104,-36,2371,15840,-1120,-4327,826,1,14,1570,292,
12125,-147,2060,15937,-1196,-4115,687,1,21,1575,285,
12145,-352,1932,15935,-1162,-3824,469,1,18,1570,288,
12165,-633,2171,16008,-1046,-3496,-10,1,21,1571,293,
12186,-769,2210,16101,-846,-3102,-563,1,23,1567,299,
12206,-627,1818,16122,-836,-2657,-961,1,19,1569,291,
12226,-523,1257,16275,-905,-2207,-1079,1,14,1562,288,
12247,-559,996,16453,-818,-1824,-1130,1,21,1567,291,
12267,-653,820,16486,-540,-1740,-1088,1,22,1566,290,
12288,-721,729,16375,-255,-2301,-919,1,21,1561,295,
12308,-853,849,16330,-53,-3399,-776,1,28,1566,298,
12328,-950,945,16383,275,-4522,-683,1,16,1562,296,
12349,-820,855,16422,555,-4959,-587,1,11,1561,299,
12369,-721,697,16393,597,-4375,-500,1,17,1569,295,
12389,-613,483,16322,498,-2808,-546,1,12,1564,298,
12409,-539,331,16224,314,-506,-613,1,20,1570,294,
12430,-561,286,16184,20,1582,-681,1,17,1565,287,
12450,-581,393,16159,-245,2973,-748,1,21,1565,287,
12470,-642,624,16184,-356,3325,-742,1,12,1566,294,
12491,-681,747,16319,-221,2583,-622,1,20,1572,306,
12511,-653,728,16444,110,1344,-407,1,16,1572,288,
12532,-538,780,16418,569,136,-175,1,20,1576,292,
12552,-474,887,16275,809,-826,-43,1,19,1563,299,
12572,-429,817,16209,803,-1315,50,1,22,1564,292,
12593,-353,692,16318,691,-1365,135,1,18,1566,286,
12613,-212,622,16361,734,-1072,135,1,13,1565,295,
12633,-205,729,16273,792,-900,210,1,17,1571,293,
12654,-161,767,16267,629,-1099,373,1,14,1570,296,
12674,19,588,16339,354,-1554,447,1,15,1567,293,
12694,107,395,16397,52,-2164,436,1,24,1564,298,
12715,94,162,16393,-317,-2739,363,1,17,1569,299,
12735,56,-59,16309,-575,-3050,280,1,23,1559,297,
12755,11,-146,16219,-701,-3190,336,1,10,1558,296,
12776,-55,-206,16218,-764,-3255,419,1,18,1564,304,
12796,-95,-490,16330,-832,-3138,259,1,22,1560,294,
12816,-86,-742,16306,-893,-2698,3,1,19,1559,295,
12837,-152,-766,16301,-1065,-2105,-254,1,12,1556,292,
12857,-218,-667,16473,-1527,-1581,-449,1,23,1555,293,
12878,-438,-648,16763,-2132,-1243,-484,1,18,1554,298,
12898,-609,-732,16952,-2719,-1058,-462,1,27,1555,293,
12918,-690,-827,16823,-3035,-1091,-444,1,20,1554,298,
12939,-853,-881,16576,-3108,-1625,-442,1,20,1560,284,
12959,-1036,-1290,15968,-2589,-2125,-458,1,16,1554,292,
12979,-1198,-1431,15807,-1847,-1337,-539,1,18,1558,288,
13000,-1256,-1532,15821,-1792,527,-847,1,23,1559,299,
13020,-1262,-642,17066,-2583,2168,-832,1,30,1556,292,
13041,-1673,-310,17178,-3789,557,-438,1,23,1571,295,
13061,-1414,-1022,16530,-2911,-2067,-183,1,20,1560,288,
13081,-1624,-1509,15960,-1890,-4712,-412,1,21,1557,295,
13102,-1944,-1744,15690,-988,-6089,-591,1,33,1559,291,
13122,-2100,-1861,15696,-667,-5692,-698,1,24,1556,294,
13142,-2119,-1926,15773,-870,-4119,-669,1,17,1553,289,
13162,-2059,-2107,15632,-1113,-2348,-624,1,21,1559,287,
13183,-2028,-2191,15637,-1154,-1442,-625,1,28,1556,284,
13203,-2145,-2300,15644,-676,-1456,-589,1,18,1560,280,
13224,-2229,-2268,15631,-55,-2244,-430,1,15,1557,283,
13244,-2031,-2172,15674,607,-3103,-223,1,22,1558,296,
13264,-1576,-2298,15802,1180,-3594,-173,1,26,1554,290,
13285,-1406,-2383,15787,1541,-3779,-274,1,21,1555,291,
13305,-1673,-2621,15697,1694,-3738,-394,1,16,1550,298,
13326,-1856,-2950,15765,1762,-3160,-305,1,10,1554,290,
13346,-1707,-3140,15873,1752,-1966,-173,1,19,1555,285,
13366,-1573,-2950,16016,1532,-934,-21,1,30,1562,296,
13386,-1668,-2765,16071,1087,-589,199,1,20,1552,286,
13407,-1757,-2785,16058,638,-959,510,1,19,1553,297,
13427,-1720,-2905,16102,300,-1575,875,1,16,1550,292,
13447,-1668,-3026,16154,30,-2052,1135,1,20,1548,294,
13468,-1556,-3028,16117,-268,-2434,1408,1,19,1547,297,
13488,-1409,-3124,16075,-463,-2788,1524,1,27,1545,291,
13508,-1257,-3285,16076,-520,-3316,1513,1,21,1545,289,
13529,-1085,-3218,15985,-414,-4020,1432,1,19,1547,283,
13549,-905,-3316,15777,-176,-4821,1263,1,23,1549,293,
13570,-1084,-3933,15764,-40,-5508,1004,1,23,1545,291,
13590,-1410,-4714,15499,14,-5719,697,1,24,1538,290,
13611,-1651,-4958,15148,-20,-5261,642,1,13,1533,293,
13631,-1488,-4760,14998,-280,-4145,822,1,16,1536,294,
13651,-1500,-4663,15009,-779,-2533,1145,1,23,1539,297,
13671,-1532,-5210,15178,-1492,-1355,1308,1,23,1541,285,
13692,-1600,-5817,15237,-1907,-1052,1226,1,22,1536,294,
13712,-1615,-5942,15239,-1725,-1836,1059,1,22,1542,290,
13732,-1797,-5532,15465,-1234,-3021,1223,1,22,1536,294,
13753,-1817,-5286,15724,-1183,-3832,1591,1,34,1538,294,
13773,-1763,-5324,15726,-1575,-3897,1933,1,19,1533,291,
13793,-1601,-5580,15389,-1805,-3441,2138,1,31,1531,289,
13814,-1599,-5662,15245,-1729,-3268,2180,1,17,1533,285,
13834,-1750,-5693,15149,-1622,-3736,2264,1,25,1531,283,
13854,-1779,-5935,15167,-1529,-4571,2361,1,27,1529,287,
13875,-1774,-6293,14890,-1352,-5452,2303,1,21,1531,289,
13895,-1945,-6514,14603,-978,-6278,2359,1,26,1520,286,
13915,-2008,-6876,14470,-714,-6909,2509,1,29,1521,295,
13936,-1968,-7250,14362,-619,-7005,2632,1,26,1528,292,
13956,-1909,-7424,14112,-551,-6700,2822,1,19,1521,281,
13977,-1821,-7555,13816,-513,-6684,2911,1,27,1515,285,
13997,-1657,-7771,13637,-388,-7440,3008,1,29,1517,285,
14017,-1594,-8335,13561,-155,-8788,3139,1,31,1511,279,
14038,-1607,-9050,13475,109,-9676,3375,1,25,1511,281,
14058,-1488,-9395,13093,290,-9713,3605,1,24,1504,288,
14079,-1333,-9584,12721,174,-9095,3630,1,30,1506,280,
14099,-1041,-9817,12476,-232,-8055,3402,1,29,1507,281,
14119,-940,-10033,12358,-456,-7081,3186,1,19,1501,279,
14140,-854,-10158,12349,-306,-6677,3096,1,26,1492,284,
14160,-763,-10234,12322,149,-7061,3061,1,24,1502,278,
14180,-850,-10488,12215,537,-7605,3047,1,27,1495,281,
14201,-744,-10789,12010,785,-7682,3043,1,22,1496,276,
14221,-525,-11053,11535,1029,-7301,3003,1,29,1491,275,
14241,-342,-11217,11112,1308,-7041,2936,1,30,1490,280,
14262,-272,-11347,10864,1739,-7355,2883,1,23,1489,273,
14282,-168,-11690,10777,2238,-8176,2936,1,20,1490,276,
14302,82,-12026,10542,2444,-8928,2961,1,19,1477,275,
14323,313,-12330,10094,2363,-8998,2807,1,21,1487,277,
14343,448,-12610,9728,2155,-8671,2547,1,29,1479,279,
14363,613,-12738,9314,1908,-8451,2290,1,18,1474,274,
14384,697,-13171,9191,1822,-8515,2084,1,21,1481,277,
14404,824,-13527,8992,1670,-8926,1918,1,21,1475,273,
14424,841,-13770,8707,1294,-8813,1786,1,23,1473,279,
14445,910,-13990,8200,872,-8069,1671,1,16,1466,270,
14465,945,-14191,7853,597,-7576,1599,1,21,1475,281,
14485,959,-14391,7892,498,-7638,1555,1,21,1473,259,
14506,958,-14620,7756,405,-7494,1543,1,22,1462,270,
14526,1041,-14832,7307,434,-7229,1610,1,20,1464,268,
14547,1233,-14823,7085,362,-7275,1583,1,16,1472,266,
14567,1249,-14939,6843,206,-7096,1452,1,15,1465,269,
14587,1270,-15095,6478,148,-6923,1393,1,12,1462,266,
14608,1404,-15157,6274,184,-7013,1345,1,18,1464,254,
14628,1560,-15222,6164,163,-7081,1187,1,16,1466,254,
14648,1603,-15392,5937,67,-6902,1003,1,18,1458,256,
14669,1676,-15471,5543,9,-6737,847,1,24,1458,254,
14689,1706,-15522,5268,-13,-6762,602,1,7,1463,257,
14709,1668,-15665,5023,-43,-6710,368,1,12,1456,254,
14730,1609,-15758,4654,-123,-6561,194,1,15,1457,247,
14750,1569,-15810,4266,-258,-6303,35,1,16,1460,244,
14770,1593,-15898,3982,-419,-6053,-135,1,12,1454,248,
14791,1550,-16065,3769,-557,-5886,-262,1,18,1450,240,
14811,1493,-16190,3546,-631,-5764,-296,1,18,1460,254,
14831,1451,-16245,3297,-698,-5623,-257,1,19,1455,241,
14852,1481,-16288,3019,-722,-5451,-190,1,17,1455,253,
14872,1488,-16293,2800,-737,-5342,-180,1,20,1452,236,
14892,1472,-16411,2606,-737,-5115,-212,1,19,1457,237,
14913,1488,-16436,2444,-712,-4920,-240,1,24,1448,240,
14933,1490,-16380,2252,-713,-4807,-332,1,18,1452,240,
14953,1486,-16415,1916,-668,-4827,-481,1,20,1450,232,
14974,1360,-16474,1658,-696,-4863,-597,1,28,1446,240,
14994,1247,-16460,1339,-773,-4835,-676,1,26,1450,234,
15014,1209,-16420,1136,-901,-4668,-772,1,21,1459,229,
15035,1122,-16438,991,-1070,-4326,-856,1,19,1449,235,
15055,1020,-16523,892,-1209,-3981,-861,1,18,1462,226,
15076,929,-16515,703,-1201,-3780,-808,1,29,1453,225,
15096,876,-16523,562,-1173,-3766,-811,1,17,1459,231,
15116,849,-16542,403,-1104,-3795,-806,1,25,1453,229,
15137,819,-16571,279,-984,-3670,-792,1,25,1457,225,
15157,809,-16601,199,-859,-3452,-761,1,25,1453,229,
15177,794,-16630,35,-714,-3304,-716,1,23,1449,229,
15198,779,-16619,-187,-502,-3346,-653,1,31,1451,223,
15218,795,-16631,-297,-360,-3281,-632,1,23,1455,221,
15239,745,-16628,-438,-375,-2929,-648,1,29,1451,225,
15259,725,-16526,-603,-485,-2419,-703,1,24,1452,220,
15279,695,-16508,-710,-540,-2090,-761,1,17,1457,221,
15300,686,-16515,-797,-465,-2007,-747,1,16,1450,212,
15320,665,-16505,-857,-380,-1962,-666,1,21,1455,219,
15340,618,-16497,-995,-423,-1783,-558,1,29,1451,217,
15361,552,-16485,-1107,-568,-1430,-443,1,28,1448,214,
15381,541,-16478,-1120,-646,-1042,-320,1,19,1447,217,
15401,524,-16461,-1059,-608,-816,-208,1,24,1450,218,
15422,549,-16473,-1075,-437,-876,-109,1,21,1453,221,
15442,545,-16503,-1143,-179,-1080,-31,1,29,1457,221,
15462,490,-16536,-1171,-2,-1191,17,1,19,1445,225,
15483,452,-16594,-1265,-18,-1000,31,1,21,1449,217,
15503,425,-16643,-1350,-129,-646,66,1,18,1456,216,
15523,414,-16648,-1403,-240,-412,125,1,18,1456,222,
15544,409,-16632,-1446,-277,-370,175,1,28,1454,216,
15564,426,-16616,-1468,-280,-395,208,1,26,1444,226,
15584,454,-16614,-1464,-293,-398,232,1,28,1454,222,
15605,478,-16580,-1459,-283,-404,238,1,21,1445,217,
15625,501,-16518,-1456,-223,-493,229,1,21,1457,217,
15646,523,-16521,-1460,-144,-597,204,1,23,1451,221,
15666,524,-16554,-1465,-92,-645,214,1,32,1452,218,
15686,525,-16542,-1492,-82,-626,199,1,26,1454,210,
15707,544,-16494,-1486,-102,-605,157,1,27,1447,217,
15727,538,-16470,-1478,-148,-562,81,1,23,1451,219,
15747,551,-16465,-1487,-198,-467,24,1,24,1450,222,
15768,584,-16492,-1505,-216,-293,-16,1,20,1448,216,
15788,554,-16535,-1475,-203,-164,-19,1,23,1447,223,
15808,573,-16574,-1414,-205,-6,13,1,21,1457,215,
15829,610,-16572,-1400,-245,225,64,1,23,1451,213,
15849,620,-16546,-1402,-285,411,116,1,26,1452,212,
15869,613,-16541,-1415,-285,580,163,1,26,1442,214,
15890,620,-16544,-1461,-216,632,245,1,21,1451,223,
15910,547,-16504,-1469,-95,524,360,1,22,1456,218,
15930,526,-16455,-1440,38,323,482,1,17,1449,221,
15951,578,-16437,-1413,137,123,588,1,28,1452,218,
15971,631,-16376,-1458,164,10,620,1,25,1455,225,
15991,674,-16315,-1499,139,-16,526,1,21,1451,221,
16012,656,-16330,-1490,81,-32,391,1,23,1457,215,
16032,673,-16372,-1471,35,-65,251,1,26,1452,212,
16053,649,-16440,-1473,14,-98,152,1,25,1453,215,
16073,619,-16508,-1482,13,-92,86,1,32,1448,224,
16093,584,-16558,-1470,4,-139,49,1,18,1452,216,
16114,554,-16626,-1524,-12,-193,50,1,28,1456,210,
16134,542,-16642,-1577,-29,-153,75,1,26,1452,210,
16155,560,-16636,-1557,-58,-83,93,1,24,1464,216,
16175,569,-16643,-1530,-92,9,82,1,16,1452,222,
16195,567,-16652,-1527,-122,54,86,1,29,1457,209,
16216,565,-16615,-1519,-153,76,84,1,27,1451,223,
16236,580,-16581,-1486,-198,207,49,1,26,1450,212,
16256,614,-16596,-1431,-254,480,14,1,23,1455,217,
16276,617,-16596,-1366,-321,813,-22,1,17,1451,221,
16297,655,-16680,-1333,-402,1239,-41,1,28,1452,220,
16317,668,-16691,-1266,-484,1742,-6,1,27,1453,215,
16337,687,-16611,-1171,-547,2140,31,1,26,1460,218,
16358,677,-16539,-1093,-530,2283,67,1,24,1448,218,
16378,655,-16468,-1007,-427,2208,100,1,21,1457,219,
16398,601,-16424,-977,-268,1970,84,1,26,1456,222,
16419,556,-16368,-892,-158,1717,42,1,30,1448,228,
16439,502,-16362,-747,-125,1625,-9,1,20,1458,220,
16460,511,-16392,-690,-166,1773,-45,1,25,1459,221,
16480,494,-16386,-588,-231,2064,-106,1,21,1457,225,
16500,493,-16426,-428,-312,2456,-169,1,25,1447,227,
16521,544,-16462,-267,-379,2887,-207,1,27,1455,219,
16541,565,-16529,-85,-426,3345,-231,1,25,1455,215,
16561,564,-16588,59,-422,3827,-269,1,25,1457,223,
16582,608,-16601,285,-414,4383,-305,1,29,1457,227,
16602,643,-16632,513,-388,4918,-343,1,21,1453,229,
16622,600,-16607,787,-269,5311,-344,1,34,1456,218,
16643,555,-16577,1033,-99,5625,-326,1,26,1456,232,
16663,585,-16504,1353,97,6008,-314,1,22,1454,236,
16683,571,-16374,1701,326,6498,-310,1,29,1451,227,
16704,605,-16258,2112,499,7099,-325,1,26,1458,236,
16724,669,-16157,2435,689,7838,-401,1,26,1460,236,
16745,688,-16027,2758,873,8465,-537,1,27,1459,249,
16765,562,-15868,3181,971,8820,-611,1,27,1453,235,
16785,430,-15863,3355,1044,8999,-709,1,24,1456,246,
16806,181,-15740,3593,970,9087,-637,1,21,1457,255,
16826,68,-15778,3770,828,9465,-512,1,23,1457,261,
16846,5,-15687,4059,599,10204,-392,1,28,1468,250,
16866,110,-15498,4260,599,11058,-376,1,20,1464,256,
16887,99,-15141,4901,731,11211,-389,1,26,1470,260,
16908,25,-14925,5474,818,10567,-431,1,28,1464,260,
16928,38,-14819,5991,700,9939,-468,1,23,1473,259,
16948,113,-14823,6395,357,10159,-595,1,20,1472,262,
16968,288,-14790,6593,64,11126,-846,1,24,1470,268,
16989,416,-14737,7111,45,12058,-1185,1,20,1466,268,
17009,360,-14656,7859,236,12247,-1353,1,19,1465,281,
17029,246,-14532,8598,467,11843,-1268,1,14,1466,276,
17050,291,-14414,9198,629,11188,-1063,1,20,1474,268,
17070,185,-14184,9522,833,10557,-810,1,26,1478,272,
17090,-40,-13827,9627,947,10047,-624,1,24,1484,272,
17111,-105,-13435,9667,1012,9841,-617,1,18,1480,280,
17131,-237,-13025,9944,1043,9916,-686,1,28,1482,282,
17152,-279,-12560,10401,936,9892,-740,1,25,1483,289,
17172,-297,-12178,10880,681,9728,-742,1,24,1494,280,
17192,-254,-11895,11326,412,9493,-724,1,29,1491,285,
17213,-247,-11574,11629,223,9093,-713,1,27,1491,289,
17233,-281,-11257,11980,99,8468,-704,1,17,1493,287,
17253,-234,-10968,12206,-75,7892,-731,1,21,1499,285,
17274,-199,-10753,12401,-180,7679,-757,1,17,1497,291,
17294,-101,-10585,12585,-173,7693,-806,1,22,1494,294,
17314,-80,-10229,12871,-107,7576,-839,1,20,1498,290,
17335,-9,-9920,13161,-3,7182,-880,1,15,1505,295,
17355,-42,-9690,13297,101,6622,-924,1,21,1505,299,
17375,-130,-9429,13307,191,6148,-920,1,10,1502,290,
17396,-179,-9193,13414,204,5990,-954,1,21,1507,289,
17416,-206,-8982,13537,157,6214,-980,1,19,1509,289,
17436,-253,-8719,13721,56,6487,-1013,1,28,1508,294,
17457,-247,-8473,13933,-19,6612,-1048,1,26,1506,298,
17477,-283,-8250,14142,31,6525,-1048,1,23,1525,287,
17498,-323,-7975,14258,174,6273,-1003,1,32,1512,308,
17518,-368,-7678,14399,223,6084,-958,1,20,1512,290,
17538,-338,-7470,14491,186,6256,-945,1,20,1518,308,
17559,-358,-7225,14521,123,6505,-967,1,23,1523,295,
17579,-361,-6908,14678,105,6623,-939,1,21,1519,291,
17599,-362,-6584,14790,158,6477,-915,1,9,1519,305,
17620,-366,-6275,14894,254,6105,-875,1,22,1520,290,
17640,-297,-6091,14996,334,5807,-851,1,21,1527,297,
17660,-277,-5903,15119,350,5768,-824,1,16,1526,298,
17680,-246,-5717,15202,333,5921,-811,1,20,1528,296,
17701,-280,-5462,15226,334,5946,-789,1,18,1530,304,
17721,-253,-5198,15253,319,5786,-755,1,17,1527,303,
17742,-229,-4936,15299,298,5701,-751,1,10,1536,306,
17762,-244,-4679,15396,226,5663,-762,1,18,1536,300,
17782,-309,-4402,15450,117,5617,-771,1,14,1532,302,
17803,-352,-4157,15519,10,5603,-764,1,21,1539,301,
17823,-397,-4006,15633,-68,5621,-737,1,18,1534,294,
17843,-440,-3829,15716,-113,5603,-662,1,18,1542,302,
17864,-468,-3623,15760,-131,5532,-536,1,21,1549,305,
17884,-491,-3347,15714,-89,5478,-363,1,27,1541,303,
17905,-525,-3031,15622,-4,5423,-230,1,18,1542,292,
17925,-546,-2670,15576,97,5460,-183,1,19,1545,293,
17945,-563,-2353,15618,201,5523,-181,1,22,1550,294,
17965,-487,-2058,15645,287,5404,-182,1,17,1551,297,
17986,-381,-1703,15678,377,5061,-252,1,21,1551,299,
18006,-327,-1463,15694,496,4704,-375,1,23,1545,299,
18027,-314,-1313,15722,550,4478,-480,1,20,1554,308,
18047,-300,-1163,15658,518,4448,-590,1,14,1550,302,
18067,-290,-989,15464,434,4550,-693,1,13,1553,301,
18088,-268,-916,15360,388,4610,-753,1,18,1548,296,
18108,-187,-773,15397,320,4487,-775,1,21,1559,297,
18128,-108,-594,15557,197,4282,-840,1,15,1557,305,
18149,-82,-525,15703,101,4211,-889,1,19,1557,305,
18169,-93,-522,15710,110,4264,-842,1,15,1563,295,
18190,-55,-256,15497,222,4225,-719,1,18,1554,300,
18210,15,147,15497,255,3799,-654,1,19,1557,297,
18230,71,443,15673,320,3081,-667,1,13,1555,299,
18250,160,560,15956,428,2174,-675,1,18,1564,304,
18271,238,614,16015,493,1539,-676,1,15,1567,303,
18291,215,636,15999,529,1156,-677,1,27,1565,301,
18312,191,608,16054,476,718,-658,1,21,1565,305,
18332,166,581,16151,356,265,-609,1,14,1564,302,
18352,88,453,16276,209,-18,-536,1,4,1562,300,
18373,36,309,16348,140,-67,-400,1,24,1570,308,
18393,-46,269,16456,151,-94,-273,1,15,1553,301,
18413,-81,213,16531,132,-247,-89,1,12,1562,300,
18433,-134,225,16634,147,-296,139,1,9,1561,303,
18454,-160,216,16677,164,-126,366,1,13,1559,305,
18474,-128,221,16580,149,51,624,1,11,1565,305,
18495,-54,315,16426,80,42,866,1,13,1563,305,
18515,2,418,16376,-62,-100,1044,1,15,1561,305,
18535,74,444,16341,-259,-140,1156,1,13,1561,299,
18556,102,519,16261,-422,-27,1204,1,15,1565,311,
18576,67,535,16280,-484,116,1195,1,24,1560,304,
18596,23,515,16449,-505,94,1169,1,16,1562,302,
18617,4,585,16500,-520,-89,1088,1,23,1565,301,
18637,24,646,16441,-525,-210,902,1,9,1561,295,
18658,-12,625,16342,-580,-200,656,1,15,1553,305,
18678,-84,544,16299,-706,-116,388,1,17,1559,307,
18698,-195,493,16281,-842,-43,200,1,13,1557,297,
18719,-273,412,16246,-979,-14,76,1,10,1556,304,
18739,-335,388,16221,-1090,69,-8,1,12,1558,306,
18759,-369,365,16289,-1119,160,-47,1,18,1554,304,
18780,-458,325,16420,-1093,251,-48,1,19,1551,297,
18800,-552,284,16512,-1074,424,17,1,23,1553,297,
18820,-599,373,16473,-1051,618,97,1,17,1555,309,
18841,-572,529,16413,-1012,724,159,1,21,1555,303,
18861,-551,699,16359,-922,671,158,1,21,1559,297,
18882,-539,788,16356,-859,435,104,1,17,1553,303,
18902,-573,761,16356,-810,203,53,1,13,1561,307,
18922,-640,746,16289,-698,73,17,1,24,1558,300,
18942,-637,744,16235,-503,-109,-9,1,19,1557,299,
18963,-586,651,16219,-269,-372,-15,1,15,1553,299,
18983,-525,537,16156,-108,-655,-21,1,16,1554,304,
19004,-530,520,16138,-57,-670,-43,1,24,1552,304,
19024,-543,479,16204,-87,-478,-103,1,22,1554,312,
19044,-575,390,16310,-116,-364,-116,1,19,1557,311,
19065,-579,332,16336,-129,-407,-98,1,22,1562,302,
19085,-603,336,16276,-190,-374,-90,1,19,1569,305,
19105,-581,365,16212,-329,-229,-99,1,20,1558,304,
19126,-555,407,16191,-456,-65,-110,1,25,1565,299,
19146,-587,425,16196,-495,-24,-77,1,18,1550,302,
19166,-650,498,16220,-477,-97,-21,1,19,1555,301,
19187,-681,535,16266,-390,-195,20,1,22,1560,298,
19207,-674,512,16265,-260,-303,48,1,22,1556,306,
19227,-685,506,16253,-148,-472,89,1,13,1555,307,
19248,-685,494,16275,-83,-620,138,1,16,1554,298,
19268,-649,459,16235,-91,-597,149,1,22,1558,300,
19278,-648,460,16219,-118,-488,131,1,24,1562,304,
19299,-636,427,16158,-178,-256,80,1,23,1563,301,
19319,-596,368,16154,-212,-136,56,1,13,1557,301,
19340,-550,395,16178,-255,-171,47,1,13,1555,311,
19360,-518,370,16222,-283,-178,37,1,16,1568,304,
19380,-526,377,16260,-291,-153,21,1,16,1564,306,
19401,-574,369,16309,-301,-109,40,1,26,1556,306,
19421,-626,335,16361,-302,-91,77,1,25,1557,301,
19441,-670,302,16318,-312,-79,125,1,27,1555,309,
19462,-724,305,16268,-352,-41,159,1,16,1556,302,
19482,-767,355,16223,-386,26,174,1,18,1554,302,
19502,-856,399,16187,-378,42,162,1,18,1558,302,
19523,-963,386,16218,-330,-61,164,1,17,1559,309,
19543,-1087,348,16276,-243,-314,185,1,12,1554,302,
19563,-1083,388,17256,-429,-596,220,1,18,1564,306,
19584,-1295,458,16493,-326,-158,183,1,21,1557,309,
19604,-1053,422,16410,-330,-57,223,1,19,1565,305,
19624,-1048,470,16272,-358,-37,244,1,16,1558,310,
19645,-892,424,16186,-383,67,257,1,23,1551,301,
19665,-781,459,16206,-407,73,296,1,23,1557,297,
19686,-625,472,16215,-350,-179,354,1,17,1557,303,
19706,-582,381,16127,-375,-268,388,1,23,1553,307,
19726,-467,296,15951,-651,-141,387,1,25,1557,299,
19747,-472,140,15810,-1189,-209,387,1,30,1556,304,
19767,-666,88,15889,-1716,-112,345,1,15,1567,295,
19787,-912,92,16090,-2000,17,244,1,24,1564,294,
19807,-1177,110,16177,-2066,55,172,1,29,1561,295,
19828,-1333,193,16256,-2054,116,114,1,21,1553,299,
19848,-1737,478,16621,-1475,-169,121,1,23,1559,297,
19869,-1706,144,16426,-802,-109,58,1,19,1565,299,
19889,-1686,251,16286,-411,59,20,1,27,1559,307,
19909,-1576,341,16197,-171,27,21,1,29,1561,305,
19930,-1425,303,16082,-176,-43,28,1,28,1562,300,
19950,-1330,359,16094,-360,-147,51,1,18,1560,302,
19970,-1292,377,16117,-494,-351,132,1,29,1557,303,
19991,-1336,246,16121,-621,-490,223,1,13,1551,311,
20011,-1440,181,16155,-682,-481,290,1,22,1558,302,
20032,-1603,159,16224,-572,-352,280,1,28,1568,302,
20052,-1627,188,16191,-411,-193,198,1,22,1564,300,
20072,-1592,211,16169,-348,-144,166,1,15,1559,307,
20093,-1643,220,16201,-252,-128,149,1,23,1569,297,
20113,-1606,143,16147,-143,-68,127,1,28,1560,300,
20133,-1596,201,16149,-143,-32,115,1,17,1559,305,
20154,-1583,202,16116,-98,-46,105,1,24,1560,298,
20174,-1578,171,16124,-114,-25,107,1,21,1561,293,
20194,-1605,181,16144,-85,-19,97,1,23,1561,301,
20215,-1576,192,16120,-98,-33,104,1,28,1564,292,
20235,-1629,179,16148,-97,-38,110,1,15,1555,291,
20256,-1609,166,16130,-78,-20,101,1,13,1565,299,
20276,-1601,194,16126,-96,-25,108,1,20,1560,300,
20296,-1589,178,16147,-81,-30,110,1,21,1559,301,
20316,-1572,184,16136,-79,-22,104,1,18,1562,302,
20337,-1575,195,16137,-84,-31,107,1,15,1563,299,
20357,-1584,172,16133,-86,-31,107,1,22,1562,300,
20377,-1609,184,16123,-84,-21,101,1,18,1560,306,
20398,-1617,188,16132,-81,-30,105,1,14,1564,296,
20418,-1605,176,16133,-82,-29,104,1,22,1562,302,
20439,-1584,194,16123,-81,-18,100,1,15,1555,303,
20459,-1569,186,16142,-85,-20,105,1,21,1561,295,
20479,-1587,190,16147,-92,-25,106,1,13,1565,297,
20500,-1607,192,16134,-82,-22,105,1,15,1563,301,
20520,-1608,188,16135,-78,-16,108,1,20,1564,302,
20540,-1609,201,16141,-72,-18,106,1,14,1562,302,
20561,-1590,190,16142,-80,-22,106,1,17,1565,305,
20581,-1595,188,16120,-80,-23,102,1,18,1558,298,
20601,-1589,186,16124,-84,-21,106,1,21,1557,293,
20622,-1586,184,16129,-83,-24,107,1,24,1552,304,
20642,-1596,172,16131,-79,-25,104,1,22,1558,304,
20663,-1599,182,16143,-86,-20,104,1,23,1565,301,
20683,-1605,188,16137,-84,-20,108,1,15,1563,301,
20703,-1611,188,16127,-87,-23,106,1,15,1555,297,
20724,-1603,200,16141,-81,-21,108,1,19,1559,303,
20744,-1592,195,16132,-78,-19,107,1,19,1561,295,
20764,-1587,201,16136,-82,-23,111,1,17,1559,295,
20784,-1597,195,16148,-86,-22,108,1,18,1564,300,
20805,-1594,189,16130,-87,-23,104,1,27,1559,295,
20825,-1603,194,16124,-87,-21,104,1,13,1561,305,
20846,-1609,194,16119,-83,-18,105,1,9,1563,299,
20866,-1600,193,16127,-84,-20,108,1,12,1556,294,
20886,-1593,182,16131,-84,-22,109,1,28,1556,300,
20907,-1587,183,16139,-86,-22,111,1,20,1562,306,
20927,-1594,186,16121,-82,-25,111,1,28,1560,298,
20947,-1592,194,16124,-84,-24,109,1,21,1563,301,
20968,-1591,197,16137,-81,-28,108,1,24,1556,300,
20988,-1601,199,16127,-81,-32,107,1,20,1552,294,
21008,-1598,195,16124,-82,-31,106,1,24,1568,304,
21029,-1595,183,16128,-78,-26,107,1,16,1568,292,
21049,-1591,189,16128,-76,-25,107,1,20,1552,296,
21070,-1601,192,16128,-80,-21,105,1,15,1557,297,
21090,-1605,190,16118,-83,-26,105,1,22,1558,300,
21110,-1611,187,16119,-81,-22,106,1,18,1558,300,
21131,-1605,189,16115,-77,-22,104,1,24,1560,298,
21151,-1606,192,16115,-79,-23,106,1,22,1562,308,
21171,-1603,182,16132,-80,-22,107,1,19,1567,305,
21191,-1600,191,16133,-80,-23,108,1,19,1563,299,
21212,-1601,202,16129,-81,-26,107,1,15,1565,303,
21232,-1595,187,16141,-84,-21,106,1,25,1565,303,
21253,-1599,197,16139,-84,-22,104,1,21,1557,295,
21273,-1594,205,16140,-85,-24,107,1,20,1560,304,
21293,-1603,192,16135,-85,-21,107,1,29,1565,293,
21314,-1603,197,16133,-87,-21,105,1,13,1563,301,
21334,-1604,194,16130,-81,-25,106,1,23,1565,301,
21354,-1599,191,16137,-77,-29,107,1,23,1563,293,
21375,-1593,185,16136,-74,-28,109,1,25,1569,299,
21395,-1601,191,16132,-76,-25,106,1,20,1564,304,
21415,-1603,195,16119,-81,-23,107,1,24,1560,300,
21436,-1588,193,16137,-77,-23,105,1,28,1558,298,
21456,-1590,189,16134,-79,-22,105,1,20,1560,300,
21477,-1584,190,16144,-79,-21,102,1,16,1560,300,
21497,-1590,185,16146,-84,-22,104,1,20,1570,302,
21517,-1590,192,16137,-82,-22,107,1,15,1555,297,
21538,-1598,190,16150,-83,-21,111,1,25,1553,299,
21558,-1598,198,16135,-81,-21,106,1,24,1564,296,
21578,-1601,193,16137,-83,-22,104,1,21,1563,297,
21598,-1598,192,16138,-85,-20,104,1,13,1563,299,
21619,-1588,198,16135,-80,-20,109,1,19,1569,305,
21639,-1584,184,16135,-85,-22,108,1,14,1562,296,
21660,-1595,184,16143,-88,-21,105,1,17,1563,301,
21680,-1592,184,16148,-87,-26,100,1,17,1555,303,
21700,-1592,189,16137,-86,-22,104,1,14,1562,298,
21721,-1598,196,16135,-86,-26,108,1,24,1562,288,
21741,-1595,197,16144,-84,-26,108,1,18,1560,296,
21761,-1603,194,16138,-79,-24,104,1,19,1563,297,
21782,-1600,189,16126,-83,-23,103,1,23,1561,297,
21802,-1597,188,16130,-85,-18,104,1,16,1556,298,
21822,-1597,192,16136,-80,-23,107,1,24,1562,300,
21843,-1592,199,16138,-82,-21,111,1,16,1558,300,
21863,-1585,194,16131,-86,-21,108,1,8,1564,300,
21884,-1588,185,16137,-90,-20,109,1,15,1565,303,
21904,-1622,204,16137,-86,-16,109,1,16,1558,302,
21924,-1605,178,16155,-80,-28,109,1,18,1560,300,
21944,-1603,170,16137,-82,-20,108,1,27,1563,301,
21965,-1605,201,16137,-70,-11,107,1,19,1563,297,
21985,-1585,183,16128,-83,-31,112,1,17,1555,297,
22005,-1604,156,16137,-85,-24,107,1,11,1557,313,
22026,-1601,204,16136,-71,-10,105,1,22,1562,300,
22046,-1599,192,16135,-86,-36,105,1,23,1559,307,
22067,-1602,172,16146,-80,-26,106,1,26,1556,304,
22087,-1560,191,16138,-74,-12,107,1,26,1560,304,
22107,-1575,191,16130,-90,-31,105,1,18,1558,306,
