t,ax,ay,az,gx,gy,gz,mag_valid,mx,my,mz,
5017,-1604,180,16131,-78,-18,109,1,16,1558,302,
5027,-1603,181,16130,-81,-21,107,1,21,1559,301,
5037,-1608,195,16135,-79,-25,107,1,20,1552,292,
5047,-1605,192,16125,-78,-21,106,1,18,1558,298,
5057,-1606,194,16119,-80,-21,107,1,19,1557,305,
5067,-1601,195,16113,-78,-24,106,1,16,1562,296,
5077,-1604,195,16125,-78,-28,108,1,15,1559,307,
5087,-1601,187,16137,-78,-24,105,1,19,1557,301,
5097,-1605,182,16149,-79,-22,106,1,20,1560,292,
5107,-1608,189,16155,-80,-21,104,1,17,1563,301,
5117,-1612,188,16157,-82,-21,102,1,20,1566,302,
5127,-1610,184,16144,-81,-19,103,1,19,1561,297,
5137,-1606,180,16145,-82,-20,106,1,22,1560,300,
5147,-1610,180,16148,-83,-18,107,1,18,1558,300,
5157,-1604,180,16150,-81,-17,109,1,23,1559,309,
5167,-1596,183,16149,-78,-16,110,1,22,1558,300,
5177,-1591,186,16152,-76,-16,110,1,21,1567,301,
5187,-1592,180,16148,-78,-16,109,1,17,1567,295,
5197,-1594,175,16163,-81,-18,110,1,17,1559,297,
5207,-1593,177,16153,-80,-21,110,1,20,1562,304,
5217,-1600,176,16153,-78,-20,109,1,13,1555,295,
5227,-1593,178,16155,-79,-19,109,1,18,1556,300,
5237,-1595,189,16156,-80,-18,109,1,15,1555,297,
5247,-1596,191,16161,-79,-20,109,1,15,1553,299,
5257,-1603,193,16156,-77,-17,108,1,23,1557,299,
5267,-1601,201,16146,-77,-17,109,1,15,1559,291,
5277,-1606,190,16148,-79,-19,108,1,18,1560,294,
5287,-1616,185,16136,-82,-18,108,1,23,1557,301,
5297,-1618,180,16157,-80,-15,110,1,26,1566,300,
5308,-1611,186,16148,-80,-19,111,1,26,1562,298,
5318,-1609,189,16150,-82,-22,112,1,20,1558,300,
5328,-1608,187,16146,-83,-20,113,1,16,1558,306,
5338,-1603,190,16150,-81,-19,113,1,22,1564,300,
5349,-1601,186,16148,-80,-23,111,1,27,1563,295,
5359,-1602,184,16149,-80,-23,113,1,18,1554,304,
5369,-1611,183,16159,-80,-26,111,1,22,1558,298,
5379,-1613,185,16160,-80,-25,113,1,26,1566,292,
5389,-1615,179,16161,-83,-23,111,1,24,1560,298,
5399,-1607,176,16149,-81,-22,111,1,20,1554,298,
5409,-1618,179,16149,-80,-21,113,1,19,1561,313,
5420,-1614,191,16148,-79,-22,114,1,19,1559,303,
5430,-1614,193,16143,-80,-23,114,1,20,1564,306,
5440,-1605,191,16144,-81,-22,115,1,26,1556,302,
5450,-1605,190,16142,-80,-22,111,1,16,1556,300,
5461,-1609,186,16140,-81,-21,107,1,13,1563,311,
5471,-1611,186,16135,-80,-20,111,1,27,1569,295,
5481,-1609,190,16130,-84,-23,113,1,19,1561,293,
5491,-1611,182,16127,-80,-25,111,1,22,1560,304,
5501,-1608,189,16131,-77,-26,109,1,19,1561,299,
5511,-1612,180,16129,-80,-25,105,1,21,1559,303,
5521,-1613,175,16126,-81,-23,105,1,20,1564,306,
5532,-1615,177,16141,-80,-25,107,1,16,1560,300,
5542,-1619,169,16134,-82,-25,108,1,17,1557,297,
5552,-1610,165,16130,-80,-23,105,1,24,1564,300,
5562,-1610,171,16124,-83,-27,103,1,19,1565,307,
5573,-1608,170,16112,-82,-25,104,1,27,1561,305,
5583,-1611,168,16118,-79,-24,109,1,22,1554,300,
5593,-1611,171,16115,-80,-21,109,1,21,1559,297,
5603,-1611,173,16123,-81,-24,106,1,20,1560,294,
5613,-1610,175,16126,-82,-21,106,1,19,1559,297,
5623,-1602,178,16122,-81,-22,108,1,15,1561,299,
5644,-1604,182,16129,-77,-25,109,1,15,1553,305,
5664,-1605,178,16139,-79,-23,107,1,21,1561,293,
5685,-1603,167,16144,-80,-24,102,1,22,1562,300,
5705,-1607,168,16138,-79,-19,99,1,27,1561,303,
5725,-1608,176,16130,-80,-19,102,1,22,1558,298,
5746,-1609,176,16138,-81,-17,107,1,12,1560,294,
5766,-1604,180,16143,-81,-22,101,1,17,1555,309,
5786,-1601,180,16143,-83,-23,106,1,13,1567,303,
5807,-1611,184,16138,-81,-26,108,1,10,1560,300,
5827,-1616,184,16131,-84,-24,107,1,21,1561,293,
5847,-1602,187,16132,-78,-20,110,1,23,1555,299,
5868,-1605,182,16138,-80,-23,116,1,18,1558,302,
5888,-1588,175,16136,-82,-23,117,1,16,1556,314,
5909,-1594,181,16127,-80,-22,110,1,18,1554,298,
5929,-1603,181,16121,-81,-25,108,1,25,1555,301,
5949,-1610,184,16120,-82,-25,109,1,15,1557,297,
5970,-1605,184,16131,-78,-27,111,1,25,1555,303,
5990,-1608,182,16139,-79,-27,113,1,23,1555,307,
6010,-1603,193,16142,-79,-24,112,1,23,1561,297,
6030,-1604,182,16135,-77,-28,111,1,19,1561,303,
6051,-1600,186,16140,-75,-28,115,1,16,1556,298,
6071,-1602,187,16147,-77,-25,113,1,23,1561,299,
6092,-1609,189,16146,-75,-25,111,1,28,1558,298,
6112,-1599,191,16128,-78,-24,108,1,24,1570,296,
6133,-1600,190,16138,-79,-23,108,1,22,1556,296,
6153,-1604,197,16130,-81,-20,107,1,23,1563,305,
6173,-1600,189,16144,-81,-18,103,1,25,1565,307,
6193,-1613,192,16143,-80,-15,105,1,21,1557,299,
6214,-1604,189,16142,-80,-21,106,1,25,1557,299,
6234,-1602,188,16134,-79,-24,106,1,25,1559,303,
6254,-1600,183,16127,-81,-25,108,1,22,1556,314,
6275,-1602,173,16138,-81,-28,106,1,17,1557,297,
6295,-1605,179,16131,-83,-26,111,1,14,1554,296,
6316,-1611,179,16129,-82,-26,111,1,26,1562,296,
6336,-1607,185,16134,-81,-28,110,1,26,1556,296,
6357,-1601,184,16127,-79,-26,106,1,13,1557,301,
6377,-1594,177,16114,-76,-24,105,1,25,1555,303,
6397,-1597,183,16118,-76,-28,112,1,24,1558,298,
6417,-1600,175,16134,-75,-26,110,1,23,1557,293,
6438,-1603,186,16139,-81,-22,109,1,18,1560,304,
6458,-1599,185,16133,-85,-17,109,1,18,1558,306,
6478,-1601,179,16143,-84,-19,105,1,20,1558,304,
6499,-1593,175,16157,-87,-19,108,1,14,1556,298,
6519,-1599,182,16154,-83,-24,109,1,20,1556,292,
6540,-1611,175,16161,-82,-23,112,1,21,1565,299,
6560,-1609,186,16151,-80,-19,108,1,13,1563,301,
6580,-1605,200,16164,-81,-18,109,1,16,1558,296,
6601,-1608,185,16156,-76,-19,111,1,20,1556,296,
6621,-1602,177,16152,-78,-18,107,1,8,1560,302,
6641,-1605,175,16140,-81,-18,110,1,23,1555,295,
6662,-1604,179,16131,-85,-23,106,1,16,1554,300,
6682,-1609,185,16140,-82,-16,109,1,22,1562,298,
6702,-1602,178,16144,-83,-20,111,1,15,1559,303,
6712,-1609,186,16149,-81,-21,109,1,14,1564,300,
6733,-1610,182,16143,-82,-22,110,1,17,1561,299,
6754,-1610,188,16148,-76,-20,110,1,21,1561,293,
6774,-1608,188,16143,-78,-21,112,1,19,1565,305,
6794,-1614,185,16142,-76,-21,109,1,24,1554,302,
6815,-1612,177,16139,-80,-26,111,1,19,1557,303,
6835,-1612,182,16151,-79,-24,113,1,23,1565,299,
6855,-1610,170,16148,-77,-23,111,1,21,1561,303,
6875,-1606,172,16136,-73,-20,108,1,34,1560,304,
6896,-1611,169,16140,-80,-21,108,1,22,1556,300,
6916,-1610,177,16149,-79,-21,109,1,18,1560,296,
6936,-1615,182,16162,-74,-22,107,1,15,1561,301,
6957,-1604,189,16149,-78,-23,108,1,15,1545,305,
6978,-1616,196,16144,-77,-24,108,1,14,1564,302,
6998,-1611,187,16143,-82,-26,111,1,19,1565,299,
7018,-1612,176,16127,-80,-23,112,1,11,1557,295,
7039,-1612,190,16126,-83,-24,115,1,20,1556,302,
7059,-1612,183,16120,-81,-24,114,1,21,1561,293,
7079,-1606,184,16128,-83,-22,113,1,27,1561,299,
7099,-1611,191,16133,-80,-21,114,1,25,1559,305,
7120,-1609,190,16144,-79,-23,111,1,15,1559,299,
7140,-1614,178,16134,-80,-28,111,1,22,1560,300,
7160,-1614,186,16144,-82,-27,110,1,22,1562,306,
7181,-1614,184,16132,-82,-26,107,1,20,1558,296,
7201,-1611,179,16144,-82,-23,106,1,21,1559,301,
7222,-1616,188,16145,-81,-18,108,1,19,1565,301,
7242,-1614,185,16147,-84,-21,111,1,16,1556,304,
7263,-1611,179,16142,-79,-20,107,1,24,1560,302,
7283,-1607,179,16147,-77,-20,109,1,22,1560,302,
7303,-1603,179,16140,-79,-23,110,1,17,1567,299,
7323,-1609,184,16145,-80,-23,112,1,24,1558,300,
7344,-1598,187,16142,-80,-24,113,1,25,1565,297,
7364,-1594,192,16140,-77,-24,110,1,25,1561,299,
7384,-1625,188,16144,-80,-24,107,1,20,1566,294,
7405,-1552,239,16169,-119,-61,90,1,17,1565,303,
7425,-1631,147,16187,-135,-85,114,1,20,1552,302,
7446,-1653,104,16179,-44,15,113,1,22,1560,304,
7466,-1575,224,16138,-31,50,103,1,16,1570,296,
7486,-1610,247,16138,-98,-67,117,1,16,1554,294,
7507,-1633,113,16171,-73,-40,113,1,23,1553,305,
7527,-1601,214,16138,-63,23,109,1,20,1554,302,
7547,-1595,224,16135,-86,-49,114,1,22,1564,302,
7568,-1626,151,16147,-84,-31,108,1,22,1568,302,
7588,-1597,210,16141,-60,2,102,1,16,1554,300,
7609,-1578,199,16143,-88,-40,105,1,27,1553,299,
7629,-1629,168,16152,-81,-28,107,1,22,1558,302,
7649,-1602,204,16149,-71,-6,106,1,19,1553,303,
7670,-1606,194,16148,-96,-36,110,1,21,1561,305,
7690,-1631,153,16149,-83,-26,107,1,20,1560,298,
7710,-1610,200,16123,-74,-7,104,1,17,1563,301,
7731,-1603,193,16132,-85,-33,109,1,25,1559,299,
7751,-1614,162,16133,-75,-23,109,1,26,1562,304,
7771,-1600,188,16124,-66,-8,109,1,14,1554,302,
7792,-1597,178,16131,-80,-31,113,1,14,1564,302,
7812,-1613,162,16136,-81,-24,109,1,24,1560,300,
7833,-1613,184,16138,-76,-11,106,1,20,1560,304,
7853,-1632,159,16135,-69,0,112,1,16,1560,302,
7873,-1619,152,16155,-36,47,113,1,18,1556,306,
7894,-1578,231,16143,-43,40,110,1,15,1559,299,
7914,-1625,193,16138,-33,3,103,1,21,1567,297,
7934,-1572,201,16127,-9,20,74,1,20,1564,298,
7955,-1568,229,16133,-45,-13,82,1,12,1558,298,
7975,-1587,216,16116,-85,-54,111,1,19,1559,305,
7995,-1605,154,16157,-76,-46,103,1,19,1561,301,
8016,-1591,219,16138,-103,-47,122,1,17,1555,295,
8036,-1614,254,16137,-160,-137,110,1,26,1550,298,
8057,-1660,139,16162,-155,-149,98,1,19,1561,301,
8077,-1642,134,16147,-105,-53,84,1,21,1559,287,
8097,-1585,206,16172,-78,-14,96,1,20,1556,294,
8118,-1621,144,16161,-37,6,101,1,15,1555,301,
8138,-1592,106,16135,45,121,107,1,16,1562,302,
8158,-1571,206,16107,1,73,91,1,18,1558,304,
8178,-1620,279,16134,-38,4,84,1,21,1563,301,
8199,-1635,128,16169,-33,-14,73,1,20,1566,300,
8219,-1642,146,16157,-3,84,81,1,16,1562,298,
8240,-1632,213,16171,70,124,90,1,22,1556,302,
8260,-1508,303,16140,72,64,119,1,18,1560,302,
8280,-1535,279,16138,-50,-68,161,1,17,1557,303,
8301,-1622,161,16153,-44,-87,146,1,9,1559,303,
8321,-1556,177,16159,-23,-32,129,1,18,1556,300,
8341,-1613,193,16184,28,6,113,1,19,1563,299,
8362,-1592,202,16183,95,72,44,1,23,1553,295,
8382,-1511,149,16138,127,117,27,1,12,1552,306,
8403,-1482,226,16177,107,116,96,1,25,1559,297,
8423,-1487,208,16178,124,84,69,1,18,1554,300,
8443,-1467,145,16228,73,112,62,1,30,1552,302,
8464,-1518,-98,16253,11,-31,127,1,23,1557,303,
8484,-1646,-396,16395,-190,146,245,1,25,1557,293,
8504,-1766,-422,16733,-434,845,296,1,23,1555,295,
8525,-1943,-198,17080,-582,1706,209,1,27,1559,297,
8545,-2013,122,17316,-545,2453,16,1,21,1559,293,
8566,-1845,343,17514,-309,2773,-227,1,31,1555,299,
8586,-1753,571,17709,213,2386,-429,1,24,1564,292,
8606,-1778,754,17602,888,1324,-569,1,20,1556,296,
8626,-1669,828,17363,1609,-337,-574,1,23,1557,297,
8647,-1452,828,17126,2103,-1979,-433,1,28,1566,304,
8667,-1272,754,16837,2336,-3212,-281,1,29,1553,303,
8688,-1092,587,16553,2262,-3822,-142,1,16,1562,298,
8708,-955,381,16371,1885,-3617,-74,1,22,1556,294,
8728,-808,126,16274,1327,-2605,-152,1,22,1552,298,
8749,-704,-139,16225,670,-1122,-240,1,23,1557,301,
8769,-671,-334,16301,30,507,-296,1,21,1553,297,
8789,-654,-322,16424,-441,1670,-226,1,17,1547,299,
8810,-744,-108,16473,-764,2256,-1,1,24,1558,298,
8830,-865,116,16481,-869,2270,249,1,25,1553,307,
8850,-911,244,16472,-757,1832,485,1,21,1561,285,
8871,-886,333,16434,-524,1021,757,1,24,1558,294,
8891,-937,512,16330,-249,13,1077,1,24,1556,290,
8912,-952,611,16244,40,-718,1286,1,27,1553,297,
8932,-991,584,16092,284,-1096,1407,1,21,1547,301,
8952,-953,464,15836,368,-1263,1520,1,15,1555,299,
8973,-838,372,15564,259,-1204,1630,1,17,1559,301,
8993,-813,221,15364,-12,-911,1744,1,21,1557,303,
9013,-985,-34,15217,-343,-493,1919,1,24,1560,300,
9034,-1199,-342,15219,-630,-10,2201,1,21,1545,299,
9054,-1283,-458,15324,-778,432,2584,1,25,1553,291,
9074,-1261,-260,15537,-683,815,2945,1,24,1554,302,
9095,-1135,119,15721,-390,993,3158,1,24,1548,290,
9115,-1002,482,15788,4,867,3219,1,26,1544,298,
9135,-955,639,15725,385,302,3203,1,22,1548,298,
9156,-970,645,15663,645,-431,3178,1,25,1545,293,
9176,-956,625,15651,789,-971,3122,1,24,1550,296,
9197,-926,639,15714,850,-1066,2968,1,31,1551,295,
9217,-928,697,15788,847,-883,2732,1,25,1549,293,
9237,-963,695,15899,814,-552,2433,1,20,1540,298,
9258,-951,545,15951,730,-163,2143,1,27,1549,299,
9278,-916,369,15920,642,130,1981,1,27,1553,295,
9298,-974,262,15909,598,256,1931,1,23,1549,297,
9319,-1031,183,15895,590,196,1976,1,23,1547,297,
9339,-1047,36,15898,565,42,2164,1,20,1546,292,
9359,-1029,-107,15949,489,-96,2495,1,26,1546,300,
9380,-960,-181,16062,429,-28,2831,1,18,1540,290,
9400,-905,-117,16125,403,169,3125,1,23,1549,297,
9421,-862,-4,16125,341,312,3377,1,29,1545,283,
9441,-815,-7,16136,214,291,3666,1,26,1540,290,
9461,-797,-121,16138,73,194,3986,1,18,1536,296,
9482,-724,-278,16081,-52,92,4353,1,29,1545,291,
9502,-598,-420,15982,-169,-17,4786,1,32,1546,294,
9522,-582,-462,15926,-273,-107,5170,1,22,1538,292,
9543,-585,-393,16012,-294,-98,5502,1,23,1543,289,
9563,-652,-200,16132,-215,16,5724,1,19,1535,291,
9583,-785,68,16171,-71,143,5806,1,27,1543,285,
9604,-888,233,16111,37,168,5819,1,24,1538,298,
9624,-898,168,16052,86,52,5851,1,29,1523,297,
9644,-852,61,16017,110,-113,5899,1,23,1535,295,
9665,-842,22,16035,68,-297,5991,1,21,1527,301,
9685,-912,35,16148,10,-390,6079,1,26,1538,284,
9706,-1009,69,16269,-4,-318,6089,1,25,1521,291,
9726,-1017,139,16370,63,-115,5998,1,19,1521,285,
9746,-991,235,16525,225,100,5853,1,29,1525,287,
9767,-931,289,16640,427,257,5697,1,31,1525,285,
9787,-898,335,16711,694,399,5515,1,32,1518,298,
9807,-848,311,16663,988,495,5374,1,28,1520,294,
9828,-773,304,16529,1228,532,5330,1,25,1513,291,
9848,-649,254,16327,1312,498,5387,1,26,1520,292,
9869,-539,118,16059,1214,426,5529,1,20,1518,294,
9889,-393,12,15909,946,347,5773,1,17,1511,291,
9909,-223,-54,15900,538,356,6149,1,26,1512,286,
9930,-241,-97,15981,181,504,6497,1,18,1520,292,
9950,-336,-11,16085,-153,687,6799,1,22,1506,284,
9970,-355,158,16118,-490,868,7037,1,22,1516,288,
9991,-374,272,16101,-757,994,7190,1,23,1517,297,
10011,-502,305,16172,-938,1005,7343,1,27,1507,293,
10031,-672,398,16371,-984,959,7444,1,19,1503,291,
10052,-757,575,16571,-876,951,7428,1,23,1503,289,
10072,-874,651,16565,-667,891,7324,1,15,1507,291,
10092,-1037,561,16414,-465,625,7227,1,27,1499,295,
10113,-968,307,16270,-264,171,7249,1,20,1506,294,
10133,-836,124,16165,-30,-214,7336,1,16,1498,292,
10154,-809,273,16158,189,-423,7380,1,28,1502,292,
10174,-838,513,16120,293,-481,7297,1,20,1488,298,
10194,-898,550,16022,265,-434,7080,1,18,1498,294,
10214,-948,404,15884,127,-405,6840,1,19,1491,287,
10235,-869,244,15836,-83,-424,6736,1,19,1489,295,
10256,-845,222,15873,-241,-371,6630,1,24,1488,284,
10276,-912,280,15942,-343,-278,6473,1,12,1486,294,
10296,-926,329,15992,-451,-232,6358,1,19,1489,277,
10316,-865,257,15977,-570,-162,6277,1,19,1481,277,
10326,-827,187,15959,-631,-103,6273,1,15,1483,287,
10347,-769,49,15910,-729,75,6327,1,14,1476,292,
10367,-761,-57,15924,-760,307,6413,1,12,1484,286,
10388,-829,-97,16028,-707,531,6533,1,17,1479,285,
10408,-936,-55,16103,-576,674,6641,1,7,1483,285,
10428,-1022,-40,16083,-405,651,6746,1,20,1466,284,
10449,-1080,-29,16067,-199,444,6874,1,9,1485,281,
10469,-1112,42,16027,5,208,6915,1,10,1478,286,
10489,-1186,172,16040,207,33,6834,1,-1,1481,287,
10510,-1198,183,16145,358,-27,6724,1,12,1482,290,
10530,-1097,105,16154,484,-59,6694,1,6,1476,286,
10550,-1074,160,16126,551,-134,6700,1,8,1474,288,
10571,-1164,320,15984,570,-238,6590,1,9,1471,289,
10591,-1306,355,15848,485,-377,6318,1,1,1475,285,
10612,-1554,484,15834,309,-393,5866,1,9,1469,291,
10632,-1693,466,15673,24,-348,5240,1,0,1464,288,
10652,-1344,140,15513,-390,-404,4802,1,-3,1469,285,
10673,-785,-73,15711,-732,-316,4714,1,1,1459,279,
10693,-634,15,15999,-877,23,4746,1,3,1461,289,
10714,-993,280,16112,-847,412,4690,1,-4,1464,288,
10734,-1268,328,16152,-753,570,4557,1,0,1460,284,
10754,-1230,169,16280,-650,561,4515,1,-3,1459,289,
10774,-1053,63,16316,-509,568,4593,1,-7,1465,289,
10795,-989,132,16254,-358,529,4778,1,-7,1465,281,
10815,-1092,287,16220,-213,459,4949,1,-10,1460,288,
10835,-1324,436,16134,-103,387,4984,1,-5,1459,287,
10856,-1469,397,16072,-76,250,4960,1,-6,1458,284,
10876,-1452,370,16120,-93,122,4940,1,-10,1456,288,
10897,-1221,306,16136,-127,3,4979,1,-8,1462,278,
10917,-1043,266,16150,-142,-127,5141,1,-17,1455,281,
10937,-1069,208,16142,-125,-235,5288,1,-16,1448,288,
10958,-1210,177,16165,-95,-318,5394,1,-17,1457,289,
10978,-1307,199,16192,-108,-320,5411,1,-7,1459,285,
10999,-1447,263,16130,-194,-273,5325,1,-18,1450,294,
11019,-1595,377,16210,-264,-181,5071,1,-17,1449,281,
11039,-1647,323,16372,-233,-109,4782,1,-14,1452,286,
11059,-1632,187,16321,-169,-171,4535,1,-18,1456,288,
11080,-1673,102,16215,-132,-288,4285,1,-18,1454,288,
11100,-1616,-26,16182,-133,-329,4000,1,-18,1448,288,
11120,-1498,-111,16235,-147,-268,3762,1,-21,1449,299,
11141,-1497,-55,16350,-144,-118,3536,1,-15,1457,281,
11161,-1533,8,16421,-102,7,3264,1,-13,1459,287,
11182,-1530,-48,16429,-22,-28,2986,1,-28,1458,282,
11202,-1426,-160,16376,77,-106,2750,1,-19,1453,287,
11222,-1208,-210,16287,156,-206,2632,1,-19,1453,287,
11243,-1100,-29,16267,248,-338,2520,1,-17,1445,285,
11263,-1223,67,16207,357,-445,2285,1,-22,1448,288,
11283,-1246,-121,16096,398,-530,2075,1,-22,1456,294,
11304,-1068,-303,16010,312,-562,2006,1,-28,1446,296,
11324,-917,-284,15993,174,-554,2022,1,-38,1450,288,
11345,-961,-235,15959,51,-535,2029,1,-25,1453,291,
11365,-997,-315,15935,-52,-507,2041,1,-25,1451,277,
11385,-956,-330,15958,-156,-478,2131,1,-31,1453,287,
11406,-1006,-165,16025,-197,-411,2128,1,-28,1446,290,
11426,-1099,-172,16039,-192,-347,2022,1,-24,1452,286,
11447,-1078,-205,15971,-217,-330,1952,1,-25,1447,287,
11467,-1001,-187,15870,-297,-370,1916,1,-24,1448,286,
11487,-899,-229,15848,-395,-431,1832,1,-32,1452,284,
11507,-864,-299,15969,-402,-399,1687,1,-29,1445,283,
11528,-988,-317,16149,-291,-300,1485,1,-24,1446,288,
11548,-1168,-306,16195,-143,-270,1249,1,-31,1441,293,
11569,-1181,-294,16152,-56,-349,1052,1,-29,1455,283,
11589,-1079,-298,16149,-69,-460,910,1,-40,1436,290,
11609,-1046,-351,16216,-197,-516,793,1,-33,1441,291,
11630,-1092,-466,16283,-377,-461,692,1,-35,1447,285,
11650,-1255,-673,16206,-594,-62,377,1,-30,1448,288,
11670,-1206,-534,15969,-603,889,133,1,-33,1443,287,
11691,-1134,-369,16190,-774,1416,-78,1,-28,1446,292,
11711,-1136,-344,16292,-840,1746,-180,1,-25,1449,289,
11732,-1236,-215,16408,-834,1708,-211,1,-28,1450,286,
11752,-1372,-97,16443,-652,1450,-276,1,-22,1452,284,
11772,-1442,-113,16415,-346,1047,-294,1,-26,1454,292,
11792,-1412,-154,16501,39,610,-240,1,-28,1448,290,
11813,-1347,-214,16520,360,235,-166,1,-28,1456,292,
11833,-1286,-260,16443,547,-88,-43,1,-26,1446,282,
11854,-1239,-241,16385,565,-321,117,1,-24,1448,284,
11874,-1282,-161,16335,452,-364,235,1,-24,1448,288,
11894,-1382,-152,16245,223,-269,309,1,-24,1454,288,
11915,-1420,-196,16220,-78,-92,377,1,-30,1438,292,
11935,-1374,-191,16243,-342,77,408,1,-23,1455,281,
11955,-1356,-139,16245,-543,153,428,1,-29,1449,283,
11976,-1415,-34,16229,-654,145,411,1,-24,1452,292,
11996,-1498,-14,16252,-645,123,330,1,-32,1448,288,
12016,-1504,-28,16306,-544,119,233,1,-30,1448,292,
12037,-1490,-15,16337,-414,119,148,1,-21,1445,291,
12057,-1510,-19,16339,-270,93,41,1,-24,1450,292,
12078,-1575,-16,16311,-128,51,-114,1,-30,1446,288,
12098,-1580,-5,16296,-30,40,-283,1,-31,1447,293,
12118,-1584,30,16309,24,78,-473,1,-26,1448,288,
12139,-1605,68,16246,14,139,-674,1,-28,1448,286,
12159,-1550,88,16179,-30,223,-870,1,-30,1448,284,
12179,-1446,119,16171,-90,321,-1092,1,-30,1450,292,
12200,-1397,148,16176,-152,394,-1328,1,-30,1444,292,
12220,-1408,162,16162,-212,421,-1543,1,-33,1449,289,
12240,-1381,148,16103,-277,386,-1745,1,-30,1452,286,
12261,-1351,153,16073,-342,299,-1959,1,-27,1445,297,
12281,-1368,149,16078,-396,221,-2202,1,-17,1441,283,
12301,-1395,124,16120,-457,173,-2402,1,-19,1449,287,
12322,-1399,75,16117,-506,175,-2559,1,-22,1450,288,
12342,-1372,54,16085,-526,200,-2716,1,-29,1455,293,
12363,-1399,51,16061,-526,191,-2877,1,-24,1462,290,
12383,-1486,46,16076,-508,153,-3051,1,-24,1452,282,
12403,-1588,83,16106,-446,146,-3289,1,-28,1452,298,
12424,-1616,141,16129,-386,132,-3550,1,-19,1459,293,
12444,-1569,216,16118,-348,70,-3793,1,-16,1448,290,
12464,-1526,209,16085,-335,6,-4003,1,-18,1450,294,
12485,-1521,188,16057,-352,18,-4168,1,-18,1448,286,
12505,-1531,213,15982,-392,40,-4363,1,-15,1453,285,
12525,-1578,244,15941,-482,22,-4584,1,-16,1458,290,
12546,-1604,286,15973,-608,-8,-4803,1,-9,1459,289,
12566,-1624,315,16072,-727,15,-5016,1,-15,1461,293,
12586,-1698,312,16168,-779,92,-5217,1,-9,1461,287,
12607,-1745,337,16222,-768,167,-5396,1,-16,1458,292,
12627,-1744,342,16270,-655,218,-5582,1,-15,1457,289,
12648,-1727,335,16237,-489,159,-5726,1,-5,1453,291,
12668,-1706,328,16213,-312,-19,-5801,1,-6,1456,284,
12688,-1689,327,16254,-127,-276,-5831,1,-2,1462,284,
12708,-1713,372,16319,43,-490,-5840,1,-1,1461,287,
12729,-1749,436,16291,190,-645,-5877,1,-3,1461,289,
12750,-1748,422,16271,318,-711,-5963,1,1,1463,295,
12770,-1726,318,16209,420,-750,-6026,1,0,1464,290,
12790,-1673,247,16218,541,-735,-6061,1,5,1461,287,
12810,-1554,238,16256,690,-678,-6081,1,8,1468,280,
12831,-1477,290,16172,801,-678,-6082,1,9,1465,299,
12851,-1413,293,16198,876,-647,-6101,1,5,1477,287,
12872,-1383,306,16188,866,-565,-6132,1,10,1468,290,
12892,-1400,327,16105,798,-446,-6169,1,4,1470,290,
12912,-1459,314,16062,695,-326,-6196,1,9,1471,289,
12933,-1551,282,16069,513,-192,-6237,1,3,1465,291,
12953,-1604,260,16079,260,5,-6230,1,9,1469,289,
12974,-1547,189,16123,39,283,-6179,1,11,1467,293,
12994,-1395,152,16102,-168,604,-6079,1,12,1472,284,
13014,-1284,155,16155,-294,875,-5961,1,9,1467,281,
13035,-1259,294,16110,-359,1018,-5821,1,2,1480,288,
13055,-1269,515,16080,-377,987,-5702,1,8,1480,292,
13075,-1249,701,16109,-363,773,-5654,1,16,1474,290,
13096,-1178,905,16053,-356,348,-5636,1,13,1485,287,
13116,-1053,1070,15999,-347,-146,-5681,1,13,1475,293,
13136,-975,1154,16002,-344,-579,-5792,1,18,1472,290,
13157,-988,1136,16064,-296,-840,-5930,1,20,1494,286,
13177,-1014,1070,16191,-199,-983,-6101,1,17,1485,293,
13197,-1011,1033,16226,-130,-1117,-6280,1,15,1483,283,
13218,-998,928,16181,-149,-1210,-6403,1,20,1482,282,
13238,-973,760,16162,-193,-1147,-6487,1,20,1488,290,
13258,-932,681,16127,-261,-907,-6575,1,16,1492,288,
13279,-971,789,16056,-356,-615,-6713,1,22,1494,282,
13299,-1032,859,16002,-491,-327,-6916,1,23,1495,289,
13320,-1078,862,15994,-658,-151,-7074,1,21,1491,293,
13340,-1129,941,15983,-844,-70,-7212,1,17,1501,285,
13360,-1190,986,16156,-955,107,-7390,1,18,1492,284,
13381,-1258,897,16254,-961,309,-7512,1,20,1492,286,
13401,-1323,806,16303,-882,456,-7572,1,25,1501,295,
13421,-1338,871,16301,-729,515,-7610,1,20,1504,288,
13442,-1299,915,16381,-522,502,-7672,1,30,1504,290,
13462,-1263,823,16498,-298,426,-7637,1,27,1513,287,
13482,-1295,737,16431,-95,224,-7447,1,23,1503,283,
13503,-1300,781,16293,33,-84,-7240,1,24,1516,282,
13523,-1263,749,16263,102,-345,-7065,1,22,1510,292,
13543,-1223,634,16217,98,-554,-6816,1,32,1514,292,
13564,-1193,633,16079,15,-686,-6598,1,28,1516,284,
13584,-1193,620,15993,-90,-684,-6468,1,33,1515,289,
13605,-1179,579,15909,-233,-583,-6380,1,36,1518,288,
13625,-1126,563,15822,-467,-430,-6290,1,26,1520,292,
13645,-1109,473,15860,-735,-206,-6138,1,30,1520,290,
13665,-1080,478,15943,-1004,126,-5976,1,30,1520,288,
13686,-1092,584,16011,-1210,528,-5918,1,23,1529,291,
13706,-1170,603,16000,-1392,944,-5903,1,25,1525,279,
13727,-1257,589,16050,-1541,1252,-5808,1,28,1538,286,
13747,-1224,767,16206,-1603,1391,-5696,1,28,1524,290,
13768,-1230,1002,16244,-1517,1303,-5619,1,25,1535,283,
13788,-1231,1181,16261,-1301,888,-5670,1,30,1526,294,
13808,-1230,1227,16386,-975,267,-5757,1,32,1536,288,
13829,-1287,1201,16454,-537,-509,-5813,1,26,1536,294,
13849,-1296,1283,16423,47,-1428,-5849,1,34,1532,284,
13869,-1237,1322,16405,551,-2302,-5849,1,25,1539,283,
13890,-1216,1154,16397,938,-2954,-5830,1,28,1540,294,
13910,-1223,863,16330,1204,-3268,-5717,1,38,1540,290,
13930,-1182,705,16215,1310,-3225,-5518,1,34,1528,292,
13951,-1114,626,16087,1322,-2914,-5286,1,31,1541,291,
13971,-989,497,16023,1232,-2310,-5024,1,27,1549,297,
13992,-879,338,16030,1046,-1514,-4727,1,26,1540,284,
14012,-805,242,16090,744,-644,-4388,1,22,1538,294,
14032,-838,222,16128,441,107,-3984,1,30,1544,280,
14052,-964,312,16087,208,704,-3604,1,32,1546,290,
14073,-967,388,16092,35,1072,-3333,1,20,1546,286,
14093,-999,419,16083,-120,1216,-3165,1,31,1541,285,
14114,-1090,471,16023,-185,1307,-3057,1,26,1552,280,
14134,-1062,563,15938,-195,1421,-2967,1,23,1551,291,
14154,-926,539,15900,-284,1610,-2805,1,24,1552,280,
14175,-752,438,15914,-475,1969,-2563,1,30,1544,288,
14195,-628,381,15874,-766,2591,-2295,1,28,1550,292,
14215,-572,462,15891,-1098,3349,-2233,1,25,1557,285,
14236,-813,923,16029,-1407,3857,-1863,1,23,1549,287,
14256,-1162,1353,16024,-1509,4055,-1498,1,28,1554,280,
14276,-1395,1779,15995,-1379,3656,-1155,1,30,1558,288,
14297,-1518,1994,16134,-1042,2670,-881,1,32,1550,298,
14317,-1616,2009,16363,-531,1072,-746,1,24,1558,288,
14337,-1651,1965,16486,89,-564,-633,1,28,1556,292,
14358,-1580,2006,16428,569,-1875,-444,1,20,1560,294,
14378,-1467,2049,16224,912,-2631,-175,1,30,1554,288,
14399,-1351,2078,16008,1056,-2805,44,1,23,1559,295,
14419,-1260,1876,15831,1011,-2255,143,1,23,1555,287,
14440,-1015,1498,15703,768,-949,27,1,32,1554,290,
14460,-906,1215,15610,305,986,-245,1,25,1553,281,
14480,-930,1183,15583,-70,2948,-605,1,31,1555,291,
14500,-937,1387,15652,-403,4674,-951,1,24,1564,294,
14521,-902,1770,15813,-801,5774,-1035,1,31,1565,283,
14541,-867,2281,15935,-1055,6146,-1018,1,35,1565,281,
14561,-783,2711,16101,-1047,5584,-1056,1,26,1564,288,
14582,-765,2951,16284,-918,3954,-994,1,28,1568,284,
14602,-796,2928,16405,-630,1736,-917,1,27,1563,291,
14623,-906,2873,16388,-200,-509,-948,1,22,1564,284,
14643,-925,2852,16328,154,-2339,-996,1,30,1566,288,
14663,-937,2905,16150,245,-3293,-736,1,19,1565,287,
14684,-995,2909,15926,157,-3486,-309,1,29,1559,287,
14704,-1052,2735,15661,75,-2929,33,1,23,1563,293,
14725,-1007,2462,15629,-68,-2002,200,1,19,1557,295,
14745,-897,2189,15706,-296,-1117,133,1,24,1562,290,
14765,-894,2073,15804,-405,-601,80,1,28,1552,286,
14786,-952,2038,15900,-319,-297,120,1,26,1560,290,
14806,-1015,2082,15895,-200,-175,123,1,26,1564,288,
14826,-1068,2131,15915,-50,-249,132,1,33,1559,287,
14846,-1098,2011,16010,48,-644,-207,1,28,1556,292,
14867,-1168,1977,16109,245,-1359,-512,1,18,1560,286,
14887,-1145,1959,16306,593,-2397,-594,1,27,1561,281,
14907,-1085,1813,16429,928,-3438,-550,1,26,1562,286,
14928,-990,1507,16376,1204,-4066,-407,1,23,1555,289,
14948,-921,1220,16190,1202,-4025,-307,1,16,1554,286,
14969,-930,1052,16039,953,-3326,-286,1,26,1558,284,
14989,-969,921,15975,599,-2081,-286,1,26,1558,288,
15009,-943,865,15922,227,-776,-338,1,14,1560,292,
15030,-808,809,16015,-114,379,-442,1,23,1555,289,
15050,-652,826,16080,-367,1161,-568,1,23,1561,291,
15070,-620,979,16107,-504,1524,-741,1,21,1555,291,
15091,-624,1192,16086,-518,1455,-936,1,21,1559,289,
15111,-608,1380,16091,-456,1072,-1147,1,17,1555,295,
15131,-590,1519,16169,-339,400,-1423,1,26,1562,294,
15152,-634,1595,16276,-186,-317,-1659,1,15,1561,295,
15172,-652,1564,16377,18,-868,-1867,1,30,1570,280,
15193,-605,1429,16337,178,-1206,-2054,1,21,1559,283,
15213,-631,1352,16180,189,-1367,-2186,1,20,1558,288,
15233,-626,1292,16003,92,-1347,-2289,1,22,1550,290,
15254,-584,1187,15896,-62,-1086,-2399,1,14,1560,290,
15274,-579,1115,15821,-236,-683,-2539,1,26,1564,290,
15295,-645,1083,15838,-414,-237,-2716,1,19,1563,287,
15315,-648,1077,15972,-567,294,-2917,1,23,1561,287,
15335,-623,1215,16066,-666,788,-3182,1,20,1570,292,
15355,-589,1382,16010,-782,1062,-3534,1,14,1562,294,
15376,-568,1410,15894,-915,956,-3838,1,21,1565,291,
15396,-600,1353,15889,-992,632,-4073,1,28,1568,282,
15417,-712,1359,15970,-898,337,-4324,1,20,1568,290,
15437,-907,1252,16096,-660,135,-4547,1,19,1569,287,
15457,-930,1133,16263,-444,-61,-4610,1,18,1582,282,
15478,-820,1199,16255,-395,-458,-4614,1,16,1578,290,
15498,-726,1263,16227,-411,-909,-4644,1,16,1578,298,
15518,-671,1245,16167,-354,-1306,-4746,1,18,1576,294,
15539,-691,1131,16125,-194,-1599,-4888,1,15,1579,293,
15559,-765,924,16178,-41,-1634,-4984,1,10,1578,286,
15579,-799,872,16237,-3,-1297,-5004,1,17,1583,285,
15600,-734,1052,16232,-96,-727,-5087,1,11,1575,287,
15620,-644,1141,16193,-316,-180,-5240,1,8,1586,288,
15641,-701,1021,16221,-510,331,-5354,1,15,1577,297,
15661,-772,886,16102,-707,770,-5428,1,11,1585,291,
15681,-739,940,16071,-863,928,-5460,1,10,1586,284,
15702,-823,1088,16178,-889,957,-5557,1,17,1583,291,
15722,-1006,1109,16311,-763,952,-5670,1,9,1589,289,
15742,-995,1053,16356,-673,786,-5650,1,7,1583,297,
15763,-945,1047,16273,-785,347,-5552,1,12,1590,290,
15783,-968,1165,16245,-879,-255,-5475,1,10,1586,290,
15803,-1121,1219,16296,-797,-728,-5497,1,10,1586,282,
15824,-1142,1178,16407,-567,-935,-5534,1,10,1590,288,
15844,-1005,989,16430,-369,-1131,-5449,1,5,1589,295,
15864,-991,978,16381,-236,-1462,-5356,1,4,1592,294,
15885,-1083,1098,16359,-32,-1725,-5385,1,2,1592,286,
15905,-1156,1179,16196,175,-1818,-5520,1,0,1580,294,
15925,-1056,1001,16116,286,-1744,-5579,1,0,1598,286,
15946,-871,794,16130,245,-1490,-5548,1,4,1600,302,
15966,-681,733,16040,60,-1024,-5533,1,-4,1596,292,
15987,-549,708,15946,-191,-460,-5600,1,1,1597,301,
16007,-449,719,15994,-461,195,-5762,1,-3,1587,291,
16027,-338,786,15994,-796,894,-5936,1,0,1596,300,
16048,-304,880,15793,-1332,1471,-6086,1,-2,1600,288,
16068,-462,1016,15783,-1849,1945,-6285,1,-8,1606,288,
16088,-699,1163,15911,-2141,2465,-6522,1,-3,1597,289,
16109,-738,1333,16038,-2126,2730,-6771,1,-3,1603,291,
16129,-802,1410,16091,-1981,2631,-6977,1,-10,1598,292,
16150,-888,1462,16248,-1752,2302,-7069,1,-7,1609,289,
16170,-971,1535,16370,-1462,1806,-7144,1,-3,1605,287,
16190,-947,1581,16451,-1108,1132,-7178,1,-10,1604,292,
16211,-878,1548,16367,-731,148,-7051,1,-13,1601,289,
16231,-856,1521,16356,-447,-885,-6896,1,-10,1612,290,
16251,-911,1637,16320,-216,-1766,-6852,1,-18,1604,292,
16272,-940,1801,16270,67,-2313,-6891,1,-19,1603,281,
16292,-924,1610,16152,271,-2553,-6799,1,-17,1609,299,
16312,-887,1321,16123,371,-2576,-6617,1,-14,1606,284,
16333,-843,1251,16123,361,-2256,-6549,1,-21,1607,293,
16353,-756,1242,16134,141,-1589,-6629,1,-20,1612,294,
16374,-680,1173,16092,-157,-982,-6698,1,-20,1608,286,
16394,-612,1040,16064,-459,-540,-6680,1,-21,1607,287,
16414,-570,908,16135,-635,-195,-6693,1,-25,1607,291,
16435,-554,854,16120,-742,98,-6808,1,-29,1613,291,
16455,-544,851,16121,-830,237,-6865,1,-30,1620,286,
16475,-573,908,15993,-937,133,-6798,1,-26,1610,284,
16496,-546,995,15865,-1053,-165,-6643,1,-28,1610,284,
16516,-545,951,15925,-1217,-498,-6516,1,-36,1614,292,
16537,-512,630,16083,-1307,-637,-6312,1,-28,1616,286,
16557,-602,572,16257,-1308,-650,-6078,1,-33,1615,281,
16577,-746,962,16225,-1277,-620,-6100,1,-28,1614,298,
16597,-1038,1254,16080,-1266,-612,-6387,1,-37,1611,295,
16618,-1387,1384,15908,-1209,-677,-6597,1,-32,1614,290,
16638,-1672,1404,15751,-1170,-738,-6528,1,-35,1615,293,
16659,-1688,1390,15753,-1168,-649,-6299,1,-42,1614,290,
16679,-1567,1046,15863,-1169,-620,-5966,1,-40,1614,292,
16699,-1523,811,15887,-1142,-735,-5559,1,-43,1623,301,
16720,-1442,812,15911,-1181,-902,-5325,1,-48,1620,290,
16740,-1348,775,16051,-1242,-916,-5305,1,-39,1619,303,
16761,-1145,726,16024,-1252,-695,-5444,1,-46,1618,290,
16781,-1027,836,16017,-1185,-383,-5721,1,-47,1621,293,
16801,-1060,952,16102,-1198,-26,-6129,1,-53,1615,291,
16822,-1208,958,16236,-1302,416,-6598,1,-45,1617,289,
16842,-1258,979,16239,-1466,763,-6980,1,-49,1615,289,
16862,-1361,1092,16245,-1636,861,-7161,1,-46,1618,294,
16883,-1469,1192,16378,-1640,790,-7233,1,-53,1619,293,
16903,-1477,1315,16404,-1426,481,-7310,1,-56,1618,292,
16923,-1491,1442,16269,-1085,-241,-7371,1,-52,1618,288,
16943,-1667,1407,16312,-756,-1295,-7316,1,-55,1615,289,
16964,-1838,1185,16489,-365,-2196,-7116,1,-60,1608,298,
16984,-1813,1036,16534,109,-2784,-6748,1,-57,1613,295,
17005,-1601,1051,16353,534,-3114,-6313,1,-62,1614,300,
17025,-1390,966,16303,882,-3155,-5985,1,-64,1608,288,
17046,-1314,815,16301,1075,-2971,-5680,1,-66,1606,294,
17066,-1261,603,16274,1188,-2660,-5472,1,-54,1610,296,
17086,-1136,475,16261,1236,-2189,-5352,1,-77,1611,295,
17096,-1083,440,16280,1177,-1901,-5344,1,-67,1609,295,
17117,-1020,386,16273,910,-1323,-5436,1,-67,1609,297,
17137,-897,260,16254,630,-584,-5553,1,-67,1605,301,
17157,-701,189,16184,399,185,-5613,1,-69,1613,287,
17178,-616,364,16089,133,773,-5623,1,-77,1609,301,
17198,-686,545,15983,-175,1024,-5627,1,-68,1606,304,
17218,-824,472,16100,-364,1056,-5636,1,-79,1607,299,
17239,-938,401,16165,-377,1048,-5569,1,-72,1604,300,
17259,-965,488,16030,-308,913,-5535,1,-83,1613,297,
17280,-941,540,16033,-243,668,-5485,1,-83,1605,293,
17300,-938,424,16110,-127,378,-5223,1,-77,1603,301,
17320,-873,348,16170,112,-14,-4699,1,-85,1613,303,
17341,-739,331,16229,341,-608,-3996,1,-74,1604,304,
17361,-688,411,16244,464,-1388,-3297,1,-81,1607,297,
17382,-650,529,16227,477,-2046,-2731,1,-81,1611,293,
17402,-672,584,16154,484,-2406,-2332,1,-84,1614,298,
17422,-801,479,16153,511,-2386,-2163,1,-85,1605,297,
17433,-833,396,16172,498,-2253,-2156,1,-84,1610,300,
17453,-846,242,16150,471,-1768,-2159,1,-81,1607,297,
17473,-810,143,16084,427,-1091,-2125,1,-87,1615,299,
17493,-829,90,15965,367,-449,-2078,1,-90,1602,298,
17514,-882,77,15979,320,-146,-2028,1,-84,1600,294,
17534,-880,106,16055,341,-47,-1916,1,-86,1602,298,
17554,-792,208,16064,401,8,-1701,1,-84,1598,300,
17575,-722,280,15924,395,-62,-1416,1,-89,1605,301,
17595,-712,226,15929,286,-207,-1093,1,-88,1610,286,
17616,-718,105,16084,165,-146,-861,1,-85,1597,299,
17636,-697,19,16182,73,112,-650,1,-88,1608,294,
17656,-661,12,16157,-14,350,-375,1,-87,1611,293,
17677,-594,62,16041,-147,362,-92,1,-84,1600,300,
17697,-571,84,16050,-285,268,127,1,-88,1598,294,
17717,-589,66,16166,-391,202,242,1,-89,1611,291,
17738,-585,56,16239,-406,185,239,1,-92,1596,300,
17758,-627,80,16230,-376,106,228,1,-88,1606,296,
17779,-626,180,16103,-361,-45,310,1,-89,1609,299,
17799,-611,175,16108,-413,-140,312,1,-82,1598,300,
17819,-654,36,16185,-434,-80,209,1,-91,1603,291,
17840,-657,-54,16204,-371,62,182,1,-91,1603,301,
17860,-575,44,16176,-319,130,341,1,-89,1607,297,
17880,-607,106,16185,-374,122,493,1,-87,1599,303,
17901,-699,90,16245,-413,149,529,1,-89,1609,293,
17921,-704,111,16307,-398,197,583,1,-84,1602,300,
17941,-700,145,16352,-387,185,653,1,-87,1607,295,
17962,-729,183,16343,-394,138,743,1,-96,1608,292,
17982,-756,195,16341,-441,83,830,1,-79,1603,307,
18003,-779,189,16348,-481,35,899,1,-91,1609,303,
18023,-807,278,16369,-479,-8,999,1,-86,1598,304,
18043,-794,389,16263,-432,-51,1131,1,-84,1606,290,
18064,-843,486,16123,-378,-100,1259,1,-85,1601,303,
18084,-935,540,15947,-315,-129,1395,1,-90,1604,300,
18104,-1000,548,15842,-215,-153,1607,1,-84,1608,292,
18125,-1032,516,15871,-104,-199,1915,1,-75,1609,295,
18145,-1080,399,15929,76,-300,2287,1,-86,1608,294,
18165,-1109,316,15962,320,-410,2656,1,-84,1604,304,
18186,-1045,292,15960,546,-527,3074,1,-85,1609,295,
18206,-911,202,15943,675,-685,3546,1,-90,1602,294,
18227,-748,27,16014,759,-891,4020,1,-82,1606,306,
18247,-662,-68,16107,848,-1119,4496,1,-79,1605,303,
18267,-660,-82,16221,972,-1269,4889,1,-74,1608,294,
18288,-683,5,16221,1110,-1285,5107,1,-75,1605,297,
18308,-622,-14,16255,1208,-1181,5168,1,-81,1601,307,
18329,-506,-213,16225,1164,-847,5056,1,-83,1613,291,
18349,-440,-421,16119,1054,-285,4932,1,-70,1598,294,
18369,-416,-496,16032,914,435,4927,1,-74,1610,298,
18390,-347,-495,15936,768,1105,4980,1,-68,1610,300,
18410,-291,-404,15836,706,1481,5015,1,-76,1610,302,
18430,-332,-318,15887,680,1496,5035,1,-73,1605,299,
18451,-340,-293,16100,713,1146,5135,1,-72,1610,294,
18471,-252,-249,16280,779,620,5309,1,-68,1606,296,
18491,-200,-158,16346,824,56,5501,1,-68,1608,296,
18512,-72,-56,16351,837,-506,5694,1,-69,1611,291,
18532,-146,-74,16354,821,-1037,5854,1,-70,1620,294,
18552,-224,-109,16334,726,-1535,5978,1,-71,1615,305,
18573,-244,-147,16339,553,-1707,6078,1,-59,1609,297,
18593,-151,-168,16299,362,-1494,6156,1,-64,1604,300,
18614,-49,-201,16283,210,-1000,6181,1,-63,1609,291,
18634,17,-221,16252,61,-359,6247,1,-60,1610,300,
18654,53,-182,16137,-135,268,6290,1,-60,1608,304,
18674,-21,-143,16111,-340,997,6310,1,-62,1602,300,
18695,-139,-159,16200,-475,1699,6397,1,-56,1608,290,
18715,-190,-102,16237,-583,2222,6520,1,-58,1610,296,
18736,-198,15,16173,-676,2416,6699,1,-51,1617,295,
18756,-231,110,16187,-730,2264,6987,1,-47,1609,299,
18776,-270,181,16356,-705,1899,7304,1,-55,1611,299,
18797,-342,310,16423,-629,1285,7639,1,-49,1617,293,
18817,-467,422,16357,-536,512,7828,1,-44,1610,294,
18837,-543,400,16266,-477,-267,7944,1,-49,1607,301,
18858,-508,359,16106,-481,-968,8061,1,-46,1618,300,
18878,-499,257,16056,-465,-1376,8162,1,-47,1611,295,
18898,-488,182,16048,-481,-1495,8251,1,-42,1610,300,
18919,-481,186,15988,-596,-1431,8245,1,-36,1610,296,
18939,-506,183,15928,-802,-1165,8134,1,-35,1613,291,
18949,-513,156,15928,-907,-924,8081,1,-37,1611,299,
18970,-520,69,15956,-1110,-291,8007,1,-37,1603,291,
18990,-599,-8,16107,-1223,394,8040,1,-37,1609,299,
19011,-680,106,16138,-1373,845,8108,1,-40,1606,298,
19031,-714,209,16127,-1509,1101,8087,1,-24,1610,294,
19051,-721,190,16235,-1494,1265,8120,1,-25,1601,295,
19072,-790,213,16301,-1356,1243,8155,1,-20,1612,298,
19092,-917,354,16342,-1102,1024,8135,1,-25,1605,289,
19112,-942,427,16389,-832,653,8031,1,-20,1608,296,
19133,-933,366,16375,-569,249,7933,1,-20,1600,290,
19153,-916,331,16367,-316,-90,7875,1,-17,1605,295,
19173,-927,349,16270,-120,-444,7851,1,-17,1613,291,
19194,-979,328,16195,20,-797,7871,1,-22,1606,286,
19214,-1027,337,16183,113,-1030,7851,1,-10,1598,300,
19235,-1019,318,16107,99,-1069,7795,1,-13,1597,301,
19255,-1019,220,16043,39,-953,7779,1,-9,1601,301,
19275,-1033,69,16082,-30,-703,7831,1,-12,1600,294,
19296,-1029,-26,16104,-122,-317,7895,1,-11,1595,293,
19316,-1069,-40,16119,-236,56,7993,1,-9,1589,299,
19336,-1087,19,16166,-408,351,8055,1,-6,1592,294,
19357,-1044,76,16143,-615,580,8067,1,-7,1595,295,
19377,-1058,-39,16147,-772,824,8119,1,7,1595,295,
19397,-1122,-97,16165,-892,1085,8216,1,-4,1582,292,
19418,-1230,-63,16235,-969,1255,8319,1,-2,1590,298,
19438,-1277,88,16329,-1068,1384,8303,1,5,1591,291,
19458,-1330,242,16229,-1074,1407,8197,1,6,1588,298,
19479,-1331,295,16200,-990,1209,8009,1,5,1591,291,
19499,-1275,280,16287,-840,879,7789,1,10,1588,296,
19520,-1218,317,16311,-660,502,7590,1,6,1588,286,
19540,-1149,382,16334,-490,164,7346,1,3,1579,291,
19560,-1173,372,16262,-344,-17,7132,1,10,1584,290,
19581,-1311,351,16122,-238,-112,6992,1,14,1588,290,
19601,-1432,306,16041,-152,-142,6845,1,10,1584,294,
19622,-1453,166,16059,-145,-118,6786,1,9,1583,295,
19642,-1458,44,16061,-174,-93,6836,1,10,1582,292,
19662,-1554,65,16039,-248,-154,6956,1,15,1577,295,
19683,-1613,100,16021,-372,-161,7097,1,21,1575,295,
19703,-1598,114,15967,-470,73,7137,1,13,1573,295,
19723,-1634,46,15917,-495,465,7150,1,20,1572,290,
19744,-1722,3,16002,-516,961,7144,1,21,1571,293,
19764,-1772,73,16022,-615,1499,7165,1,21,1571,287,
19784,-1685,251,16055,-759,1909,7086,1,26,1570,286,
19804,-1660,487,16042,-892,2100,6866,1,18,1566,302,
19825,-1741,667,16072,-1007,2138,6506,1,25,1561,287,
19845,-1798,639,16252,-1101,2159,6191,1,19,1567,291,
19866,-1820,446,16290,-1115,2071,5990,1,29,1565,293,
19886,-1890,396,16335,-956,1718,5779,1,22,1562,292,
19906,-1960,475,16340,-721,1161,5559,1,21,1567,285,
19927,-1979,614,16255,-457,493,5212,1,30,1564,290,
19947,-1912,653,16199,-173,-139,4720,1,25,1559,291,
19968,-1847,587,16167,87,-604,4186,1,22,1550,288,
19988,-1882,494,16098,232,-852,3664,1,24,1554,286,
20008,-1929,376,15979,242,-857,3148,1,31,1563,289,
20029,-1951,225,15903,181,-657,2736,1,26,1558,298,
20049,-1958,142,15908,94,-317,2395,1,26,1562,294,
20069,-2001,240,15880,-6,93,1999,1,26,1562,290,
20090,-1981,338,15822,-129,338,1621,1,26,1560,280,
20110,-1942,273,15865,-214,376,1278,1,29,1559,293,
20130,-1913,167,15951,-243,270,1057,1,21,1553,291,
20151,-1997,256,15968,-205,100,874,1,25,1563,283,
20171,-2090,370,15948,-108,-124,628,1,21,1551,289,
20192,-2140,298,15992,19,-320,423,1,21,1563,297,
20212,-2210,216,15979,156,-396,316,1,27,1559,289,
20232,-2218,269,15965,264,-308,264,1,18,1552,294,
20252,-2183,458,15900,322,-105,190,1,22,1550,290,
20273,-2208,533,15788,286,133,146,1,17,1553,283,
20293,-2256,497,15715,153,398,138,1,27,1563,293,
20314,-2285,429,15709,-30,633,260,1,25,1559,287,
20334,-2285,443,15689,-184,808,421,1,17,1565,291,
20354,-2160,575,15619,-320,909,547,1,27,1557,293,
20375,-2021,591,15594,-422,933,596,1,27,1563,287,
20395,-1910,542,15570,-449,893,632,1,31,1561,285,
20416,-1832,473,15587,-412,699,684,1,25,1551,287,
20436,-1729,384,15644,-348,403,762,1,21,1555,291,
20456,-1673,321,15650,-266,124,830,1,24,1564,292,
20477,-1699,288,15647,-180,-161,843,1,21,1561,297,
20497,-1757,308,15717,-101,-350,825,1,22,1560,300,
20517,-1756,258,15836,2,-387,756,1,25,1553,299,
20538,-1708,161,15975,82,-318,670,1,20,1556,294,
20558,-1700,93,16112,58,-219,623,1,26,1556,296,
20578,-1777,122,16184,-15,-149,610,1,18,1556,296,
20599,-1836,121,16323,-60,-19,584,1,26,1560,290,
20619,-1932,206,16381,-96,173,514,1,27,1555,293,
20639,-2002,278,16332,-133,264,439,1,25,1553,295,
20660,-2027,236,16359,-144,251,364,1,29,1557,293,
20680,-2033,224,16387,-116,235,321,1,32,1558,292,
20701,-2008,335,16365,-80,149,303,1,26,1562,292,
20721,-2009,458,16296,-78,-66,266,1,21,1557,293,
20741,-2031,489,16260,-155,-227,176,1,23,1549,289,
20761,-2041,443,16205,-208,-287,89,1,22,1560,292,
20782,-2038,453,16200,-200,-321,14,1,23,1555,291,
20802,-2060,519,16247,-161,-307,-55,1,32,1564,286,
20823,-2040,547,16264,-186,-205,-77,1,30,1558,300,
20843,-2391,213,17165,-160,508,-83,1,27,1551,297,
20863,-2878,285,17286,197,1942,-115,1,31,1557,303,
20884,-2583,823,16914,545,2694,5,1,20,1562,296,
20904,-2058,1064,16777,681,2445,-43,1,24,1558,298,
20925,-1847,1168,16669,774,1722,-74,1,19,1563,301,
20945,-1602,920,16687,909,1068,-52,1,20,1552,296,
20965,-1440,804,16628,1038,520,11,1,29,1551,295,
20986,-1354,691,16618,1094,96,155,1,22,1564,296,
21006,-1446,795,16364,1080,-142,281,1,23,1559,293,
21026,-1468,817,16115,954,-155,287,1,25,1559,301,
21047,-1401,766,16025,769,47,245,1,21,1553,307,
21067,-1294,823,16061,645,409,207,1,21,1561,297,
21087,-1174,947,16071,600,752,105,1,18,1564,296,
21108,-1164,1057,16125,606,876,-20,1,25,1563,305,
21128,-1272,1176,16127,599,885,-104,1,22,1560,304,
21148,-1377,1315,16177,611,907,-240,1,30,1554,310,
21169,-1337,1324,16327,681,740,-373,1,30,1560,296,
21189,-1324,1290,16460,806,244,-443,1,17,1565,305,
21210,-1422,1368,16371,913,-370,-386,1,17,1557,303,
21230,-1460,1540,16223,858,-643,-330,1,27,1561,303,
21250,-1375,1576,15963,587,-561,-301,1,18,1564,310,
21271,-1271,1458,15685,155,-318,-293,1,27,1567,299,
21291,-1241,1274,15693,-277,53,-258,1,23,1555,297,
21311,-1289,1163,15878,-667,710,-175,1,26,1564,306,
21332,-1342,1227,15838,-1004,1295,-87,1,26,1570,306,
21352,-1308,1102,15927,-1168,1550,-39,1,24,1564,302,
21372,-1391,995,16065,-1148,1499,89,1,33,1565,301,
21393,-1553,1015,16301,-911,1364,195,1,26,1560,298,
21413,-1625,1167,16458,-460,1119,234,1,27,1557,303,
21434,-1482,1291,16450,-35,664,254,1,26,1558,296,
21454,-1358,1271,16280,271,198,258,1,26,1562,298,
21474,-1439,1228,16025,386,-9,287,1,26,1570,306,
21495,-1558,1174,15893,384,69,386,1,21,1563,291,
21515,-1533,1227,15903,330,361,446,1,22,1558,300,
21535,-1376,1373,15956,259,556,460,1,26,1562,298,
21556,-1311,1456,16084,155,619,517,1,24,1562,304,
21576,-1378,1599,15987,48,613,561,1,23,1561,307,
21596,-1434,1611,16055,-69,640,543,1,21,1559,297,
21617,-1464,1567,16074,-171,765,542,1,20,1568,298,
21637,-1397,1470,16257,-226,810,606,1,17,1567,293,
21657,-1320,1460,16395,-202,673,762,1,19,1565,287,
21678,-1381,1543,16343,-129,367,849,1,25,1559,295,
21698,-1418,1608,16128,-30,9,852,1,24,1562,298,
21718,-1334,1634,15907,-8,-169,783,1,16,1562,298,
21739,-1210,1617,15767,-102,-37,650,1,23,1561,297,
21759,-1303,1321,15957,-187,366,505,1,23,1563,295,
21780,-1543,1357,16093,-132,720,460,1,21,1563,293,
21800,-1593,1589,16033,-45,850,431,1,26,1558,296,
21820,-1476,1662,16259,-18,673,429,1,26,1564,290,
21841,-1428,1679,16339,-44,296,501,1,18,1564,306,
21861,-1516,1742,16248,-76,-62,579,1,22,1560,294,
21881,-1602,1909,16092,-72,-216,611,1,24,1564,296,
21902,-1539,2046,16051,-65,-180,567,1,25,1559,291,
21922,-1377,2071,16240,-142,-128,504,1,24,1558,294,
21942,-1265,2026,16435,-279,-276,554,1,24,1560,288,
21963,-1212,2051,16583,-437,-461,638,1,28,1560,294,
21983,-1189,2171,16432,-654,-667,749,1,19,1565,297,
22003,-1158,2107,16531,-939,-812,786,1,25,1561,297,
22024,-1199,1895,16809,-1151,-828,779,1,26,1570,300,
22044,-1328,1694,16927,-1284,-838,798,1,34,1560,298,
22064,-1532,1587,16814,-1352,-882,893,1,25,1565,297,
22085,-1772,1527,16676,-1339,-772,1002,1,26,1562,300,
22105,-1932,1505,16479,-1221,-498,992,1,28,1554,296,
22125,-2057,1535,16295,-966,-241,898,1,34,1556,294,
22146,-2111,1614,16128,-640,-75,767,1,31,1549,299,
22166,-2089,1669,15943,-353,-31,628,1,25,1559,291,
22187,-1986,1658,15827,-89,-145,485,1,24,1566,294,
22207,-1792,1644,15777,105,-497,335,1,28,1554,290,
22227,-1707,1593,15622,117,-1093,222,1,31,1557,293,
22248,-1746,1403,15464,54,-1814,153,1,28,1554,290,
22268,-1808,1106,15345,17,-2300,151,1,20,1552,294,
22288,-1845,843,15284,38,-2569,141,1,27,1547,299,
22309,-1786,596,15333,86,-2660,98,1,32,1562,296,
22329,-1700,395,15352,38,-2494,96,1,34,1550,290,
22349,-1736,284,15357,-98,-2145,150,1,27,1569,295,
22370,-1818,294,15435,-191,-1655,173,1,27,1555,297,
22390,-1826,371,15545,-143,-1113,94,1,28,1552,294,
22411,-1721,469,15768,-61,-696,-55,1,22,1552,286,
22431,-1663,558,15907,-68,-372,-206,1,28,1550,300,
22451,-1687,537,15943,-161,-198,-318,1,25,1555,301,
22471,-1761,417,15916,-229,-188,-320,1,30,1552,294,
22492,-1820,319,15988,-252,-209,-243,1,25,1553,297,
22512,-1918,290,15987,-273,-218,-173,1,28,1550,288,
22533,-2034,247,15919,-332,-245,-119,1,24,1548,306,
22553,-2092,165,15869,-363,-274,-90,1,23,1549,299,
22573,-2162,141,15825,-229,-309,-175,1,19,1553,295,
22593,-2207,146,15883,4,-394,-279,1,26,1558,302,
22614,-2195,123,15927,219,-476,-337,1,24,1562,296,
22635,-2162,229,15949,450,-498,-404,1,30,1556,300,
22655,-2100,399,15926,589,-471,-483,1,34,1554,292,
22675,-1970,472,15929,622,-396,-570,1,25,1549,301,
22695,-1790,399,15991,540,-295,-599,1,29,1549,299,
22716,-1622,319,16097,394,-201,-501,1,17,1555,291,
22736,-1576,409,16123,174,-119,-342,1,27,1551,297,
22757,-1622,467,16092,-74,-56,-227,1,18,1560,294,
22777,-1620,375,16139,-331,18,-107,1,29,1555,297,
22797,-1639,395,16178,-509,85,2,1,26,1552,296,
22818,-1692,484,16155,-637,103,35,1,33,1543,305,
22838,-1763,509,16075,-711,85,20,1,26,1548,298,
22858,-1846,519,16006,-741,177,-13,1,29,1551,291,
22879,-1924,525,15997,-753,472,-96,1,27,1557,295,
22899,-1968,543,16047,-747,777,-149,1,21,1559,293,
22919,-2094,567,16106,-649,969,-179,1,24,1556,296,
22940,-2163,661,16208,-449,1121,-186,1,21,1555,301,
22960,-2153,785,16318,-287,1199,-228,1,32,1558,296,
22981,-2091,788,16348,-126,1044,-253,1,26,1550,296,
23001,-2054,728,16319,76,566,-200,1,22,1556,302,
23021,-2027,713,16270,242,-12,-61,1,29,1549,299,
23042,-1963,804,16238,353,-441,50,1,23,1557,293,
23062,-1880,854,16155,355,-657,94,1,25,1551,299,
23082,-1793,851,16035,259,-722,119,1,25,1551,293,
23103,-1681,793,15935,63,-732,151,1,21,1553,301,
23123,-1647,823,15916,-165,-580,141,1,24,1554,292,
23143,-1651,899,15965,-380,-222,78,1,26,1556,288,
23164,-1674,874,16014,-581,212,-11,1,33,1561,295,
23184,-1740,742,16099,-691,601,-92,1,26,1558,292,
23205,-1936,628,16127,-698,834,-127,1,24,1570,298,
23225,-2078,614,16121,-605,899,-85,1,25,1557,299,
23245,-2128,592,16028,-476,734,-30,1,21,1553,297,
23266,-2149,536,15937,-326,381,69,1,20,1546,296,
23286,-2136,507,15983,-167,9,233,1,26,1562,304,
23306,-2159,571,15981,-30,-291,372,1,23,1553,299,
23327,-2166,620,15934,49,-519,419,1,24,1558,296,
23347,-2141,743,15959,89,-481,389,1,27,1549,299,
23367,-2077,858,15928,19,-190,292,1,24,1562,296,
23388,-1984,886,16042,-123,186,178,1,26,1558,298,
23408,-1977,791,16098,-270,451,107,1,29,1555,295,
23429,-1939,662,16319,-312,383,169,1,30,1558,294,
23449,-2394,988,17217,195,-366,242,1,26,1558,300,
23469,-2398,1256,16735,642,-393,87,1,19,1557,299,
23489,-2015,972,16357,674,-502,18,1,26,1552,298,
23510,-1918,855,16296,694,-558,111,1,33,1557,289,
23530,-1875,797,16255,545,-519,137,1,25,1559,293,
23551,-1946,757,16074,602,-656,169,1,23,1551,299,
23571,-1892,601,16156,547,-442,112,1,25,1553,305,
23591,-1863,536,16088,568,-308,138,1,25,1555,295,
23612,-1821,481,16102,606,-220,136,1,17,1563,293,
23632,-1795,497,16078,707,-193,121,1,19,1557,293,
23652,-1724,453,16114,834,-154,131,1,22,1560,294,
23673,-1683,494,16124,897,-101,146,1,11,1557,299,
23693,-1677,541,16126,984,-76,160,1,21,1555,301,
23714,-1507,687,16237,918,-148,165,1,22,1564,296,
23734,-1351,576,16177,512,-160,308,1,30,1566,300,
23754,-1447,510,16148,108,-2,513,1,28,1562,304,
23774,-1487,567,16139,-88,39,639,1,24,1560,304,
23795,-1503,526,16121,-186,78,626,1,25,1565,297,
23815,-1545,567,16117,-219,81,575,1,24,1562,290,
23836,-1607,576,16130,-147,53,495,1,27,1561,297,
23856,-1577,561,16122,-16,37,376,1,17,1565,301,
23876,-1545,576,16137,75,4,246,1,28,1556,298,
23897,-1506,585,16143,116,-25,164,1,28,1568,306,
23917,-1523,566,16130,132,-14,101,1,30,1560,296,
23937,-1499,564,16133,109,-21,83,1,24,1560,294,
23958,-1562,594,16113,73,-10,57,1,25,1561,297,
23978,-1575,656,16130,85,-82,133,1,22,1566,308,
23999,-1473,510,16112,69,-94,100,1,19,1559,287,
24019,-1410,543,16123,-61,-14,112,1,23,1563,289,
24039,-1505,573,16124,-128,-4,126,1,18,1558,304,
24059,-1535,603,16138,-51,-22,104,1,22,1562,302,
24080,-1474,574,16127,-15,-56,108,1,25,1559,295,
24100,-1459,525,16132,-86,-20,117,1,19,1567,295,
24121,-1511,593,16120,-117,7,109,1,23,1563,299,
24141,-1544,592,16133,-71,-30,108,1,22,1566,294,
24162,-1509,571,16132,-31,-41,101,1,26,1562,304,
24182,-1463,565,16143,-77,-22,111,1,15,1565,301,
24202,-1503,564,16149,-111,-4,118,1,18,1562,300,
24222,-1516,590,16135,-76,-20,108,1,25,1561,299,
24243,-1493,561,16124,-54,-35,110,1,25,1569,301,
24263,-1481,555,16129,-81,-19,111,1,26,1558,298,
24284,-1498,586,16152,-110,-10,116,1,23,1557,307,
24304,-1528,585,16126,-81,-23,109,1,26,1570,302,
24324,-1503,571,16140,-62,-28,111,1,26,1558,292,
24345,-1491,571,16144,-82,-22,114,1,25,1565,305,
24365,-1498,583,16131,-92,-18,112,1,29,1557,303,
24385,-1508,586,16132,-72,-26,109,1,22,1552,294,
24406,-1500,573,16128,-75,-21,110,1,22,1568,306,
24426,-1518,568,16133,-89,-19,105,1,24,1556,300,
24446,-1535,572,16122,-88,-23,109,1,24,1564,304,
24467,-1520,573,16115,-66,-27,106,1,26,1562,298,
24487,-1490,567,16141,-69,-32,108,1,20,1550,306,
24508,-1481,565,16124,-83,-24,110,1,24,1556,304,
24528,-1504,577,16123,-87,-25,111,1,33,1561,303,
24548,-1518,579,16119,-77,-29,107,1,27,1557,307,
24568,-1509,566,16129,-73,-24,108,1,24,1562,300,
24589,-1503,576,16121,-79,-19,105,1,25,1563,297,
24609,-1500,575,16112,-78,-22,102,1,20,1562,296,
24630,-1489,564,16124,-73,-22,107,1,24,1564,298,
24650,-1496,552,16149,-80,-18,110,1,18,1558,298,
24670,-1512,555,16138,-88,-18,103,1,22,1558,304,
24691,-1516,564,16145,-82,-22,110,1,25,1555,301,
24711,-1506,564,16132,-74,-23,112,1,25,1555,293,
24731,-1499,560,16140,-80,-24,111,1,29,1555,295,
24752,-1492,571,16122,-84,-21,110,1,20,1558,298,
24772,-1499,574,16117,-76,-23,104,1,30,1568,292,
24793,-1507,570,16125,-70,-26,104,1,23,1561,297,
24813,-1507,568,16126,-75,-22,105,1,25,1559,295,
24833,-1504,566,16129,-82,-18,110,1,22,1564,306,
24854,-1509,571,16126,-81,-22,109,1,24,1558,296,
24874,-1513,574,16128,-74,-22,108,1,29,1569,305,
24894,-1517,571,16139,-76,-19,110,1,23,1559,301,
24915,-1514,564,16152,-79,-18,110,1,24,1562,304,
24935,-1499,578,16138,-73,-22,108,1,20,1560,308,
24956,-1501,571,16142,-70,-24,110,1,23,1563,295,
24976,-1501,565,16144,-75,-22,106,1,25,1563,307,
24996,-1502,567,16141,-82,-23,111,1,17,1557,299,
25016,-1499,574,16134,-81,-21,109,1,12,1546,300,
25037,-1502,569,16142,-74,-26,105,1,24,1564,296,
25057,-1500,572,16138,-75,-21,106,1,23,1557,303,
25077,-1507,571,16145,-75,-21,107,1,27,1559,303,
25098,-1512,573,16134,-77,-26,102,1,21,1561,301,
25118,-1513,573,16141,-78,-23,105,1,19,1567,297,
25139,-1515,567,16146,-81,-22,107,1,20,1558,306,
25159,-1509,578,16142,-82,-25,109,1,18,1562,300,
25179,-1498,576,16149,-78,-23,110,1,13,1559,297,
25200,-1495,580,16152,-76,-26,106,1,25,1553,303,
25220,-1496,567,16153,-81,-25,107,1,29,1557,299,
25240,-1504,576,16149,-80,-26,109,1,23,1561,301,
25261,-1502,576,16142,-74,-26,108,1,24,1558,298,
25281,-1505,569,16131,-76,-26,106,1,22,1568,308,
25302,-1507,579,16135,-71,-24,105,1,26,1566,298,
25322,-1511,574,16129,-76,-23,105,1,28,1560,302,
25342,-1506,579,16130,-74,-23,109,1,21,1559,305,
25362,-1510,577,16128,-79,-21,107,1,23,1555,299,
25383,-1513,580,16131,-79,-22,107,1,23,1563,299,
25403,-1507,575,16135,-74,-22,106,1,29,1563,301,
25424,-1504,568,16134,-78,-23,106,1,26,1564,304,
25444,-1503,572,16129,-81,-21,109,1,32,1568,302,
25464,-1508,567,16122,-78,-24,108,1,21,1563,301,
25485,-1504,566,16125,-76,-25,103,1,27,1561,299,
25505,-1498,566,16126,-77,-22,107,1,31,1567,297,
25525,-1500,580,16120,-84,-26,106,1,28,1554,302,
25546,-1503,576,16127,-82,-28,107,1,27,1565,297,
25566,-1506,576,16137,-81,-28,108,1,17,1561,297,
25587,-1508,573,16131,-81,-23,113,1,26,1564,306,
25607,-1509,574,16121,-86,-24,112,1,22,1566,308,
25627,-1508,572,16115,-79,-23,112,1,26,1560,300,
25648,-1507,577,16119,-80,-24,113,1,30,1566,298,
25668,-1503,571,16136,-81,-23,110,1,22,1566,300,
25688,-1499,565,16133,-82,-21,110,1,22,1562,298,
25709,-1500,564,16132,-86,-23,108,1,29,1555,301,
25729,-1506,566,16147,-85,-20,110,1,24,1560,298,
25750,-1508,570,16128,-85,-23,106,1,32,1556,302,
25770,-1520,569,16143,-83,-24,103,1,26,1560,302,
25790,-1523,576,16144,-80,-27,108,1,24,1562,304,
25810,-1520,583,16129,-82,-28,108,1,24,1558,298,
25831,-1511,578,16134,-84,-25,107,1,23,1561,293,
25851,-1505,568,16122,-78,-22,109,1,20,1568,296,
25871,-1504,569,16127,-82,-23,110,1,26,1562,296,
25892,-1503,561,16128,-79,-22,110,1,11,1559,295,
25912,-1500,566,16134,-79,-23,108,1,24,1562,290,
25933,-1511,569,16139,-80,-21,110,1,32,1562,302,
25953,-1513,572,16126,-80,-22,111,1,18,1566,294,
25973,-1508,572,16136,-81,-23,108,1,21,1561,293,
25994,-1513,571,16127,-78,-18,108,1,19,1555,301,
26014,-1508,567,16127,-75,-17,108,1,21,1563,297,
26034,-1513,566,16121,-75,-19,108,1,21,1563,297,
26055,-1518,578,16131,-81,-19,107,1,24,1572,294,
26075,-1509,561,16130,-76,-24,107,1,29,1563,301,
26096,-1501,565,16125,-67,-18,104,1,24,1560,304,
26116,-1494,575,16131,-78,-18,102,1,32,1560,290,
26136,-1514,565,16132,-82,-18,109,1,16,1570,298,
26156,-1512,574,16138,-74,-16,100,1,25,1565,299,
26177,-1514,573,16129,-81,-18,110,1,17,1571,299,
26197,-1527,563,16120,-81,-17,108,1,20,1560,296,
26218,-1515,566,16104,-74,-23,109,1,22,1562,296,
26238,-1499,563,16119,-76,-26,109,1,19,1559,299,
26258,-1494,570,16112,-78,-24,103,1,23,1565,295,
26279,-1505,568,16122,-83,-24,111,1,14,1572,298,
26299,-1512,565,16119,-78,-28,112,1,27,1567,299,
